time,gx,gy,gz,ax,ay,az,Mag_X,Mag_Y,Mag_Z,p
878928,0.130242,-0.000749,0.042777,0.969948163,0.056808776,0.154297653,-0.20519,-0.135467,-0.187465,1016.549011
879028,0.127504,-0.006082,0.043528,0.962812959,0.050050306,0.150323061,-0.207172,-0.134913,-0.18794,1016.549011
879128,0.122826,-0.020912,0.042283,0.963291633,0.036181327,0.150499796,-0.204657,-0.136873,-0.189541,1016.549011
879228,0.110233,-0.034609,0.040226,0.974557755,0.030730408,0.153560918,-0.202671,-0.135434,-0.188964,1016.549011
879328,0.095904,-0.043992,0.038057,0.983562245,0.035686531,0.153662653,-0.205662,-0.136383,-0.189016,1016.550781
879428,0.08623,-0.049758,0.036923,0.989919796,0.040702347,0.151988878,-0.204155,-0.134888,-0.189439,1016.550781
879528,0.070794,-0.049817,0.039836,0.99240051,0.045224796,0.154773878,-0.203681,-0.137933,-0.188591,1016.550781
879628,0.056794,-0.054271,0.043403,0.98674949,0.050071837,0.155108571,-0.202714,-0.133562,-0.186363,1016.550781
879728,0.044123,-0.062553,0.042815,0.983605306,0.053149796,0.155042551,-0.201641,-0.137347,-0.191065,1016.550781
879828,0.017891,-0.073005,0.042146,0.98398602,0.051951837,0.158736224,-0.201159,-0.135908,-0.189988,1016.550781
879928,-0.005279,-0.078129,0.03865,0.985978061,0.046199592,0.16003898,-0.200112,-0.133312,-0.19236,1016.550781
880028,-0.022381,-0.079187,0.03651,0.988487245,0.041427653,0.159307551,-0.197071,-0.13025,-0.194706,1016.550781
880128,-0.027618,-0.07983,0.030491,0.990534388,0.037271633,0.157824898,-0.196053,-0.128224,-0.195604,1016.550781
880228,-0.028018,-0.079827,0.024537,0.984791837,0.029062347,0.155896837,-0.193974,-0.126544,-0.200025,1016.550781
880328,-0.027939,-0.085059,0.019924,0.977090918,0.017851327,0.158327551,-0.191957,-0.12304,-0.200846,1016.550781
880428,-0.011237,-0.079723,0.018607,0.979542041,0.011671327,0.156906224,-0.189423,-0.119496,-0.202667,1016.550781
880528,0.004165,-0.071336,0.018171,0.972377143,0.016311224,0.161916735,-0.186961,-0.120106,-0.201192,1016.550781
880628,0.007338,-0.077776,0.015437,0.969304184,0.019802347,0.153825,-0.183845,-0.116353,-0.20751,1016.550781
880728,0.013161,-0.06512,0.013556,0.984276939,0.030327245,0.153833367,-0.179825,-0.112358,-0.208806,1016.550781
880828,0.015011,-0.058916,0.011936,0.976790102,0.033566122,0.162604388,-0.177236,-0.109167,-0.213651,1016.550781
880928,0.00642,-0.079792,0.013692,0.978378367,0.030146122,0.160113673,-0.173779,-0.105333,-0.211447,1016.55011
881028,-0.000571,-0.087862,0.017629,0.986291633,0.031121122,0.162754592,-0.169144,-0.103026,-0.219341,1016.55011
881128,4.80E-05,-0.080656,0.021444,0.990018878,0.029269898,0.161762449,-0.168557,-0.100326,-0.223712,1016.55011
881228,0.00695,-0.071301,0.019415,0.987705408,0.024245816,0.153183163,-0.161544,-0.098845,-0.225633,1016.55011
881328,0.028441,-0.077912,0.015401,0.97909,0.01296,0.151209592,-0.15792,-0.094578,-0.232425,1016.55011
881428,0.049901,-0.091716,0.0144,0.969215918,0.006175816,0.155133061,-0.154376,-0.088534,-0.234619,1016.55011
881528,0.067854,-0.11129,0.012569,0.955977755,-0.000742143,0.147551837,-0.150336,-0.083993,-0.236888,1016.55011
881628,0.076689,-0.130098,0.013714,0.950828163,-0.011601837,0.145155816,-0.143754,-0.08134,-0.242257,1016.55011
881728,0.087553,-0.129724,0.017463,0.955722551,-0.016717551,0.147860204,-0.138666,-0.078663,-0.247626,1016.55011
881828,0.093813,-0.112846,0.017842,0.961656224,-0.016880612,0.150696939,-0.133642,-0.075656,-0.249471,1016.55011
881928,0.096901,-0.090154,0.02357,0.964048878,-0.022361837,0.148021633,-0.126549,-0.071492,-0.255263,1016.55011
882028,0.091238,-0.082734,0.026034,0.963462857,-0.02790051,0.143836122,-0.122499,-0.070888,-0.258736,1016.55011
882128,0.083228,-0.094368,0.037718,0.958538673,-0.03269949,0.144012551,-0.119948,-0.068292,-0.261606,1016.55011
882228,0.075131,-0.12025,0.044228,0.954256429,-0.041249796,0.152372041,-0.112389,-0.066699,-0.266026,1016.55011
882328,0.067055,-0.148285,0.048643,0.955211531,-0.04913898,0.159518878,-0.109887,-0.06522,-0.266449,1016.55011
882428,0.059098,-0.163215,0.052947,0.970323367,-0.055447755,0.161918469,-0.108853,-0.065139,-0.268448,1016.55011
882528,0.058434,-0.171035,0.062753,0.995888265,-0.059051224,0.163108163,-0.102785,-0.066488,-0.27352,1016.55011
882628,0.067068,-0.172155,0.071252,1.016358265,-0.060456735,0.164876735,-0.10626,-0.064416,-0.27392,1016.55011
882728,0.078079,-0.174594,0.081108,1.03549398,-0.06271949,0.169331327,-0.101283,-0.066986,-0.274045,1016.55011
882828,0.096146,-0.188514,0.093487,1.049249898,-0.062273163,0.181256531,-0.102331,-0.070578,-0.271724,1016.55011
882928,0.111737,-0.202342,0.098236,1.058020204,-0.058652041,0.188261837,-0.10587,-0.073632,-0.269379,1016.55011
883028,0.114113,-0.212593,0.098309,1.060523061,-0.049307245,0.188573776,-0.1089,-0.075674,-0.267482,1016.55011
883128,0.103467,-0.229471,0.097374,1.054260306,-0.034401122,0.189248061,-0.107466,-0.078832,-0.264635,1016.55011
883228,0.099026,-0.236624,0.088948,1.05512,-0.017731939,0.194752755,-0.109028,-0.079973,-0.261188,1016.55011
883328,0.102277,-0.231629,0.078681,1.052423673,0.001132245,0.202750816,-0.108559,-0.08105,-0.259739,1016.55011
883428,0.108271,-0.214567,0.062375,1.040626837,0.01708398,0.206513878,-0.105041,-0.07904,-0.261136,1016.55011
883528,0.11461,-0.200672,0.043452,1.022557959,0.019158469,0.206205408,-0.100087,-0.078693,-0.259609,1016.55011
883628,0.129084,-0.197944,0.031668,0.999428163,0.015641531,0.201447449,-0.100571,-0.081128,-0.260736,1016.55011
883728,0.143653,-0.203034,0.022652,0.973536939,0.003506122,0.193985816,-0.100137,-0.080806,-0.257212,1016.55011
883828,0.149155,-0.213969,0.014712,0.948437755,-0.008607653,0.183108265,-0.098609,-0.082727,-0.259312,1016.55011
883928,0.14155,-0.225522,0.013657,0.928026939,-0.018795102,0.177092449,-0.099145,-0.083313,-0.257339,1016.55011
884028,0.120483,-0.228578,0.013045,0.920069286,-0.025675102,0.169354898,-0.095117,-0.085249,-0.259938,1016.55011
884128,0.100804,-0.224342,0.018053,0.921328367,-0.028291429,0.171743776,-0.094589,-0.084188,-0.261386,1016.55188
884228,0.081382,-0.21468,0.023639,0.922856429,-0.032533776,0.170216429,-0.095584,-0.083176,-0.261336,1016.55188
884328,0.065595,-0.207395,0.028936,0.927165714,-0.039037959,0.17277898,-0.092537,-0.081584,-0.264258,1016.55188
884428,0.047348,-0.20658,0.03314,0.928781429,-0.04730102,0.174725714,-0.091973,-0.080925,-0.267731,1016.55188
884528,0.027486,-0.20017,0.032839,0.939706327,-0.055061837,0.179916224,-0.088882,-0.07575,-0.272474,1016.55188
884628,0.006723,-0.190126,0.029337,0.944840204,-0.058661939,0.175562245,-0.086308,-0.076071,-0.276997,1016.55188
884728,-0.011764,-0.185647,0.022486,0.948371429,-0.058617449,0.171702755,-0.085734,-0.069433,-0.280165,1016.55188
884828,-0.028531,-0.190657,0.019714,0.953952755,-0.052395612,0.167992449,-0.087632,-0.063206,-0.284359,1016.55188
884928,-0.040772,-0.195663,0.012113,0.96137051,-0.045679286,0.174264184,-0.086149,-0.06425,-0.28391,1016.55188
885028,-0.043085,-0.194977,0.008452,0.968980306,-0.040849388,0.185531939,-0.089507,-0.059896,-0.290205,1016.55188
885128,-0.036922,-0.188055,0.000715,0.972165306,-0.03984,0.186687347,-0.094446,-0.056731,-0.292053,1016.55188
885228,-0.026053,-0.178934,-0.007734,0.972529592,-0.037816633,0.18488051,-0.097436,-0.05768,-0.292105,1016.55188
885328,-0.015089,-0.1648,-0.021489,0.973945612,-0.040256531,0.188568163,-0.102388,-0.056533,-0.293555,1016.55188
885428,-0.004856,-0.15288,-0.038825,0.973841837,-0.038680816,0.189944592,-0.105392,-0.055039,-0.29248,1016.55188
885528,-0.001805,-0.15038,-0.055934,0.976969184,-0.041734592,0.195526224,-0.109876,-0.054967,-0.292482,1016.55188
885628,0.000133,-0.146676,-0.072782,0.984213367,-0.042526633,0.204071939,-0.114344,-0.057339,-0.29361,1016.55188
885728,0.011986,-0.129583,-0.08486,0.993482347,-0.036395612,0.207460306,-0.117307,-0.05276,-0.294382,1016.55188
885828,0.009015,-0.114119,-0.098099,0.986745102,-0.032216122,0.209227959,-0.117291,-0.054704,-0.295483,1016.55188
885928,-0.007797,-0.106622,-0.105555,0.979226122,-0.034035714,0.204537347,-0.118737,-0.053066,-0.297906,1016.55188
886028,-0.022396,-0.101116,-0.109747,0.961932245,-0.034925714,0.214484898,-0.12074,-0.054054,-0.297457,1016.55188
886128,-0.030093,-0.102378,-0.110773,0.953445612,-0.032313367,0.209034388,-0.119131,-0.051796,-0.303353,1016.55188
886228,-0.040434,-0.101199,-0.110561,0.951512755,-0.032663776,0.214884184,-0.118647,-0.04986,-0.302252,1016.55188
886328,-0.037194,-0.094638,-0.109734,0.951471939,-0.026565918,0.212691633,-0.116052,-0.048139,-0.307673,1016.55188
886428,-0.032285,-0.090309,-0.111517,0.949278265,-0.026077449,0.20303551,-0.113972,-0.045961,-0.312069,1016.55188
886528,-0.020017,-0.098876,-0.115307,0.948686429,-0.029581735,0.203614898,-0.108951,-0.044449,-0.31399,1016.55188
886628,-0.009064,-0.110176,-0.120119,0.946493878,-0.038910102,0.218702143,-0.113344,-0.040674,-0.318312,1016.55188
886728,-0.003304,-0.119855,-0.124632,0.946741735,-0.047932041,0.227097347,-0.110301,-0.036117,-0.320581,1016.55188
886828,-0.007797,-0.129692,-0.126825,0.943525816,-0.055142857,0.228755102,-0.10823,-0.033963,-0.324477,1016.55188
886928,-0.015652,-0.123591,-0.122692,0.944511633,-0.055132449,0.228885102,-0.110159,-0.029303,-0.327248,1016.55188
887028,-0.02467,-0.107132,-0.118743,0.939088469,-0.052889286,0.223886735,-0.104643,-0.029792,-0.329271,1016.55188
887128,-0.032029,-0.09102,-0.113289,0.925347041,-0.049864796,0.21545949,-0.104598,-0.025211,-0.331042,1016.55188
887228,-0.038629,-0.085755,-0.110191,0.912438061,-0.050599184,0.207731122,-0.102487,-0.026424,-0.337615,1016.55188
887328,-0.042889,-0.096208,-0.109475,0.909860612,-0.050532041,0.212341837,-0.102979,-0.017473,-0.336658,1016.549561
887428,-0.04204,-0.124585,-0.111714,0.913270918,-0.055461633,0.224976837,-0.100384,-0.021707,-0.342884,1016.549561
887528,-0.037147,-0.143721,-0.115579,0.926859286,-0.061320918,0.239917347,-0.101359,-0.020148,-0.343807,1016.549561
887628,-0.029933,-0.151371,-0.117028,0.939062449,-0.063407959,0.249752551,-0.104339,-0.015119,-0.343554,1016.549561
887728,-0.02978,-0.144574,-0.115247,0.948601327,-0.064750816,0.251535714,-0.102745,-0.016372,-0.349128,1016.549561
887828,-0.035839,-0.129857,-0.110132,0.960099694,-0.062093265,0.253392653,-0.104286,-0.016469,-0.346629,1016.549561
887928,-0.047994,-0.119429,-0.102677,0.973509694,-0.059977347,0.259110816,-0.101213,-0.016299,-0.351126,1016.549561
888028,-0.063851,-0.098909,-0.096796,0.998564082,-0.058373163,0.269662551,-0.101285,-0.014499,-0.347026,1016.549561
888128,-0.072282,-0.082545,-0.094731,1.031178163,-0.060382245,0.291582449,-0.10022,-0.01781,-0.351202,1016.549561
888228,-0.0734,-0.055226,-0.095842,1.072023469,-0.062189898,0.304889082,-0.098246,-0.017889,-0.350202,1016.549561
888328,-0.061443,-0.033094,-0.103654,1.103971735,-0.067948571,0.315427245,-0.097271,-0.019448,-0.349278,1016.549561
888428,-0.05299,-0.010443,-0.111779,1.130316327,-0.075102347,0.322475204,-0.093325,-0.025563,-0.348083,1016.549561
888528,-0.046095,0.022536,-0.11769,1.14877398,-0.081819184,0.329513776,-0.090416,-0.02929,-0.344261,1016.549561
888628,-0.048422,0.068447,-0.121968,1.162452347,-0.081087143,0.330276429,-0.084495,-0.034986,-0.34204,1016.549561
888728,-0.05964,0.106912,-0.129216,1.164557959,-0.072728673,0.323252245,-0.079593,-0.042707,-0.338921,1016.549561
888828,-0.076256,0.1253,-0.137977,1.166786633,-0.060588673,0.326650918,-0.069235,-0.048594,-0.334198,1016.549561
888928,-0.093948,0.134075,-0.150812,1.174026429,-0.045354898,0.338154082,-0.06387,-0.055423,-0.329029,1016.549561
889028,-0.118886,0.167169,-0.17488,1.213342245,-0.02562949,0.336991327,-0.05453,-0.063336,-0.32341,1016.549561
889128,-0.13699,0.21854,-0.202139,1.255265816,-0.018321939,0.317529286,-0.043713,-0.075282,-0.317493,1016.549561
889228,-0.141849,0.242997,-0.212411,1.280101327,-0.016562755,0.26823449,-0.035428,-0.08432,-0.308926,1016.549561
889328,-0.111312,0.231527,-0.211706,1.272805102,-0.029330918,0.222200816,-0.028213,-0.098493,-0.297115,1016.549561
889428,-0.04442,0.234837,-0.214381,1.280566224,-0.045337449,0.177414796,-0.020534,-0.111275,-0.283228,1016.549561
889528,0.052342,0.2509,-0.23177,1.30695398,-0.057715,0.123322041,-0.017935,-0.127208,-0.264496,1016.549561
889628,0.147559,0.226095,-0.243369,1.288807449,-0.047779898,0.045033571,-0.021351,-0.1486,-0.244547,1016.549561
889728,0.195454,0.134542,-0.237778,1.219243265,-0.023991122,-0.064570408,-0.026262,-0.165009,-0.223844,1016.549561
889828,0.198246,0.006471,-0.223993,1.142561531,0.01495898,-0.137995918,-0.035578,-0.179162,-0.20704,1016.549561
889928,0.172908,-0.104449,-0.209735,1.076575102,0.074643061,-0.156417551,-0.048335,-0.188679,-0.192007,1016.549561
890028,0.120114,-0.20445,-0.202979,1.019636633,0.144496327,-0.134000408,-0.060036,-0.200535,-0.180599,1016.549561
890128,0.024893,-0.274846,-0.197637,0.981186633,0.20304602,-0.083798571,-0.066184,-0.207824,-0.17246,1016.549561
890228,-0.093774,-0.276918,-0.179967,0.968029388,0.245513061,-0.025636224,-0.068772,-0.210517,-0.16759,1016.549561
890328,-0.216844,-0.227404,-0.149132,0.946979082,0.267621633,-0.024949694,-0.072256,-0.208967,-0.167515,1016.549561
890428,-0.322674,-0.181231,-0.12285,0.917339898,0.277612347,-0.066010714,-0.06774,-0.205976,-0.168861,1016.549561
890528,-0.404663,-0.141074,-0.102806,0.887001633,0.267247653,-0.110976122,-0.062703,-0.200953,-0.171104,1016.549561
890628,-0.447951,-0.100513,-0.0882,0.881401429,0.242764286,-0.144077857,-0.057046,-0.189669,-0.17904,1016.549561
890728,-0.453505,-0.064175,-0.076994,0.904286327,0.205304388,-0.173261939,-0.051328,-0.180709,-0.190602,1016.549561
890828,-0.435217,-0.075005,-0.070863,0.936766327,0.161167449,-0.196066939,-0.045173,-0.169433,-0.198538,1016.549561
890928,-0.383029,-0.131675,-0.073904,0.977744286,0.127115,-0.193399286,-0.040949,-0.154992,-0.209321,1016.549561
891028,-0.304689,-0.191913,-0.089449,1.016064082,0.109877245,-0.165573878,-0.043698,-0.139942,-0.22008,1016.549561
891128,-0.251399,-0.219572,-0.096685,1.040314694,0.096608367,-0.119399796,-0.047465,-0.126419,-0.229917,1016.549561
891228,-0.213981,-0.215635,-0.091614,1.063338265,0.08557398,-0.072875306,-0.051707,-0.110847,-0.240652,1016.549561
891328,-0.178662,-0.198508,-0.069603,1.06169102,0.077467041,-0.024711122,-0.05896,-0.097269,-0.250489,1016.549561
891428,-0.156742,-0.184419,-0.039429,1.043847857,0.080631224,-0.00820898,-0.065844,-0.088495,-0.254058,1016.549561
891528,-0.147922,-0.188235,-0.005925,1.017897449,0.086416939,0.002438878,-0.073172,-0.080068,-0.260652,1016.549561
891628,-0.152557,-0.194596,0.033105,0.99201398,0.093247143,0.020279082,-0.083022,-0.074165,-0.265873,1016.549561
891728,-0.163705,-0.201548,0.06424,0.957904898,0.09618398,0.035516224,-0.088974,-0.065078,-0.265917,1016.549561
891828,-0.182762,-0.206604,0.093138,0.930902347,0.104020714,0.05783398,-0.092418,-0.061937,-0.267765,1016.549561
891928,-0.20441,-0.201674,0.116325,0.909760918,0.112323163,0.081588571,-0.095405,-0.060395,-0.26769,1016.549561
892028,-0.226702,-0.193824,0.131018,0.885388163,0.123277245,0.084847245,-0.097864,-0.058788,-0.269114,1016.549561
892128,-0.243297,-0.179977,0.13851,0.858831531,0.12701051,0.084423571,-0.098317,-0.059158,-0.271639,1016.547302
892228,-0.246292,-0.151864,0.138024,0.839204286,0.126828163,0.082775102,-0.093344,-0.058763,-0.271112,1016.547302
892328,-0.231461,-0.109335,0.134962,0.82801398,0.114190408,0.074598163,-0.089268,-0.059582,-0.27616,1016.547302
892428,-0.194876,-0.063489,0.133081,0.824130612,0.088911224,0.058868061,-0.083795,-0.058198,-0.275582,1016.547302
892528,-0.154126,-0.027478,0.133241,0.826812245,0.06241102,0.038781837,-0.078728,-0.057064,-0.280027,1016.547302
892628,-0.114201,-0.02035,0.138841,0.829201122,0.044150612,0.026113571,-0.071179,-0.054997,-0.283922,1016.547302
892728,-0.089087,-0.041331,0.150592,0.832328776,0.03436398,0.022307755,-0.067199,-0.053091,-0.283319,1016.547302
892828,-0.075113,-0.088998,0.166708,0.833162653,0.041068061,0.029517755,-0.062111,-0.055372,-0.289443,1016.547302
892928,-0.068657,-0.141372,0.185903,0.836478673,0.050849082,0.046329796,-0.059132,-0.055444,-0.288942,1016.547302
893028,-0.0645,-0.184873,0.200986,0.837390408,0.067073673,0.064003469,-0.060147,-0.055974,-0.287968,1016.547302
893128,-0.057827,-0.203398,0.207096,0.832716224,0.077480204,0.075218571,-0.057623,-0.057911,-0.290068,1016.547302
893228,-0.041987,-0.207557,0.203163,0.831563367,0.081660204,0.078451633,-0.054622,-0.056439,-0.29049,1016.547302
893328,-0.036163,-0.193219,0.19963,0.836289388,0.082476939,0.086541939,-0.053558,-0.05975,-0.294667,1016.547302
893428,-0.015429,-0.181961,0.1968,0.845499082,0.085792143,0.099904286,-0.05203,-0.056712,-0.296013,1016.547302
893528,0.005183,-0.157594,0.195124,0.863454694,0.088799082,0.10254898,-0.047471,-0.055594,-0.299959,1016.547302
893628,0.014562,-0.120121,0.194535,0.882517653,0.094341735,0.09868051,-0.04243,-0.053536,-0.302855,1016.547302
893728,0.012582,-0.096148,0.195221,0.887576837,0.100841224,0.097134898,-0.038832,-0.053302,-0.308852,1016.549011
893828,0.023533,-0.0862,0.190744,0.892698265,0.105238061,0.10596,-0.0333,-0.049781,-0.311171,1016.549011
893928,0.046424,-0.058872,0.176405,0.900969592,0.110245714,0.119788776,-0.029684,-0.045039,-0.317439,1016.549011
894028,0.081254,-0.013707,0.157343,0.907641122,0.102794796,0.125479184,-0.026127,-0.041937,-0.320784,1016.549011
894128,0.119823,0.023229,0.139666,0.915035204,0.092790306,0.116207143,-0.022998,-0.036166,-0.327501,1016.549011
894228,0.156272,0.047185,0.126285,0.927262857,0.080541633,0.110286122,-0.017907,-0.031995,-0.332794,1016.549011
894328,0.190169,0.066164,0.1159,0.938311939,0.07453449,0.109618673,-0.009774,-0.029221,-0.341161,1016.549011
894428,0.207879,0.08,0.116049,0.94882898,0.073318571,0.113816429,-0.006177,-0.024527,-0.346429,1016.549011
894528,0.215307,0.082894,0.120365,0.958528061,0.077393265,0.122785408,0.001834,-0.022066,-0.348299,1016.549011
894628,0.199141,0.096141,0.135074,0.978392041,0.080770408,0.135579592,0.01001,-0.016206,-0.358513,1016.549011
894728,0.157393,0.138067,0.152136,1.000101429,0.091122551,0.145354898,0.012607,-0.013489,-0.363883,1016.549011
894828,0.096855,0.195013,0.172833,1.01328102,0.105292857,0.135986939,0.020733,-0.009245,-0.371674,1016.549011
894928,0.013799,0.236402,0.190812,1.022894082,0.123028367,0.113068163,0.024867,-0.003965,-0.378916,1016.549011
895028,-0.076465,0.246533,0.201695,1.028704082,0.147823163,0.098493163,0.030886,-0.000974,-0.380761,1016.549011
895128,-0.161032,0.23739,0.205339,1.048145714,0.168758163,0.096934082,0.034038,0.007336,-0.38835,1016.549011
895228,-0.227973,0.234206,0.206122,1.089781122,0.173128367,0.118101837,0.044089,0.015342,-0.391939,1016.549011
895328,-0.261358,0.26085,0.202125,1.145646224,0.16100102,0.163922959,0.046687,0.023515,-0.39653,1016.549011
895428,-0.246395,0.322032,0.191241,1.21147102,0.129235102,0.232493061,0.052201,0.026988,-0.39785,1016.549011
895528,-0.178553,0.424624,0.171485,1.291085612,0.080832959,0.298557347,0.056216,0.033948,-0.398493,1016.549011
895628,-0.104282,0.570097,0.154087,1.391797959,0.016885204,0.326953367,0.063655,0.036225,-0.396364,1016.549011
895728,-0.043413,0.74349,0.152207,1.479992245,-0.042027245,0.311543776,0.071423,0.037063,-0.38529,1016.549011
895828,-0.00266,0.885969,0.168428,1.516199286,-0.066664592,0.250905306,0.077643,0.033818,-0.37192,1016.549011
895928,0.017725,0.95587,0.175382,1.519494898,-0.041682347,0.168814694,0.080738,0.027295,-0.351707,1016.549011
896028,0.000281,0.973567,0.163743,1.521532347,0.024480306,0.100714184,0.079192,0.014977,-0.323777,1016.549011
896128,-0.04483,0.924438,0.130866,1.476932755,0.091237245,0.038964796,0.068648,0.006193,-0.293673,1016.549011
896228,-0.076734,0.782749,0.074854,1.389908163,0.129934082,-0.057452347,0.052191,-0.002826,-0.267095,1016.549011
896328,-0.103803,0.558362,0.000521,1.273235918,0.130199796,-0.174088776,0.02641,-0.011334,-0.248017,1016.549011
896428,-0.12386,0.297294,-0.071101,1.150281224,0.073056939,-0.227183265,-0.000348,-0.013823,-0.229134,1016.549011
896528,-0.111032,0.045974,-0.100892,1.023136531,0.005871122,-0.21399,-0.026934,-0.013886,-0.219146,1016.549011
896628,-0.071362,-0.249649,-0.10354,0.910746633,-0.044915816,-0.189244184,-0.047465,-0.011858,-0.213053,1016.549011
896728,-0.006935,-0.542512,-0.116027,0.858910306,-0.083569898,-0.136506429,-0.0674,-0.006608,-0.211806,1016.549011
896828,0.124369,-0.721044,-0.136522,0.863580408,-0.138693469,-0.03568602,-0.079778,-0.000761,-0.215029,1016.549011
896928,0.321998,-0.70546,-0.159656,0.872339388,-0.200205816,0.028565306,-0.089693,0.004974,-0.216752,1016.549011
897028,0.51939,-0.523998,-0.184738,0.868249388,-0.263552041,0.046746327,-0.092205,0.008927,-0.21505,1016.549011
897128,0.655969,-0.246082,-0.184431,0.888620408,-0.290346327,0.026269694,-0.093158,0.012527,-0.216872,1016.549011
897228,0.705983,0.027137,-0.163554,0.930677143,-0.25064602,-0.004346224,-0.094629,0.01509,-0.217745,1016.549011
897328,0.694012,0.158262,-0.12883,0.949351837,-0.175896224,-0.043280714,-0.091075,0.0162,-0.221191,1016.549011
897428,0.658065,0.129994,-0.082817,0.969282347,-0.095715204,-0.06011051,-0.090109,0.015115,-0.219742,1016.549011
897528,0.612436,0.048262,-0.030551,1.007681837,-0.011032245,-0.036531837,-0.093495,0.019397,-0.224538,1016.549011
897628,0.538761,0.027055,-0.000249,1.040556327,0.075885714,-0.003489082,-0.096966,0.018006,-0.225615,1016.549011
897728,0.437199,0.060559,-0.007447,1.027731224,0.157468163,0.000834898,-0.104949,0.021074,-0.224465,1016.549011
897828,0.307709,0.083386,-0.040061,1.000415714,0.201621633,-0.029137551,-0.110904,0.023708,-0.22534,1016.549011
897928,0.169273,0.049789,-0.082543,0.970082143,0.19529551,-0.050186122,-0.11979,0.027032,-0.229189,1016.549011
898028,0.050914,-0.028745,-0.110298,0.939012755,0.161624694,-0.041721633,-0.128672,0.032847,-0.23291,1016.549011
898128,-0.033477,-0.121723,-0.119847,0.911988571,0.118201837,-0.007527347,-0.140051,0.040173,-0.236057,1016.549011
898228,-0.076263,-0.20719,-0.116865,0.884690408,0.067674592,0.027395816,-0.145457,0.045411,-0.239303,1016.549011
898328,-0.087123,-0.259934,-0.111353,0.851815816,0.02948102,0.057927653,-0.155313,0.047827,-0.244703,1016.549011
898428,-0.067061,-0.290725,-0.11212,0.816071122,-0.002250204,0.0716,-0.162237,0.055009,-0.246348,1016.549011
898528,-0.025386,-0.309868,-0.121243,0.779297959,-0.021946429,0.072152857,-0.168613,0.05884,-0.251171,1016.549011
898628,0.010205,-0.301061,-0.136235,0.758204898,-0.040125408,0.071674592,-0.172433,0.068257,-0.258711,1016.549011
898728,0.048115,-0.260379,-0.146981,0.754070102,-0.057669898,0.075121939,-0.173277,0.070651,-0.266607,1016.549011
898828,0.069986,-0.188259,-0.148582,0.750377551,-0.066958265,0.067351122,-0.17162,0.078486,-0.274222,1016.549011
898928,0.072625,-0.108796,-0.140649,0.74842,-0.064390204,0.060918571,-0.171508,0.084231,-0.279441,1016.549011
899028,0.061284,-0.057015,-0.126823,0.751617449,-0.056023163,0.055394082,-0.167828,0.0941,-0.288453,1016.549011
899128,0.058921,-0.038847,-0.108265,0.766026735,-0.045766633,0.062449082,-0.165569,0.103189,-0.301516,1016.549011
899228,0.074826,-0.046017,-0.091752,0.794064898,-0.039711327,0.074682347,-0.164455,0.111907,-0.306581,1016.549011
899328,0.084089,-0.064977,-0.074834,0.829986939,-0.03924898,0.085978469,-0.162773,0.11832,-0.315772,1016.549011
899428,0.07843,-0.101746,-0.065289,0.861070408,-0.041351633,0.086236735,-0.159579,0.129715,-0.325208,1016.549011
899528,0.057278,-0.163372,-0.060321,0.88440051,-0.056054184,0.084671939,-0.158929,0.136545,-0.332375,1016.549011
899628,0.024865,-0.2211,-0.049069,0.896525816,-0.073643571,0.082749286,-0.164203,0.143117,-0.342568,1016.549011
899728,-0.017707,-0.256593,-0.034346,0.894098673,-0.091932959,0.085867653,-0.163084,0.149867,-0.348235,1016.549011
899828,-0.06181,-0.275472,-0.01231,0.876917347,-0.095173878,0.092803776,-0.167918,0.154293,-0.35553,1016.549011
899928,-0.091116,-0.283957,0.007913,0.851597857,-0.085318265,0.10743949,-0.166781,0.160593,-0.362223,1016.549011
900028,-0.096539,-0.276704,0.02162,0.844729898,-0.071717041,0.13495398,-0.168115,0.166981,-0.369915,1016.549011
900128,-0.08765,-0.250531,0.025253,0.855220204,-0.058187653,0.165314694,-0.166011,0.172695,-0.375133,1016.549011
900228,-0.045294,-0.201756,0.015933,0.884022449,-0.052092347,0.184202449,-0.164866,0.172566,-0.383155,1016.549011
900328,0.010217,-0.130542,-0.009308,0.917709388,-0.054581531,0.185422653,-0.159174,0.177493,-0.39392,1016.549011
900428,0.077105,-0.054415,-0.036758,0.950430408,-0.071285918,0.165121939,-0.155568,0.182211,-0.399688,1016.549011
900528,0.122802,0.001567,-0.059525,0.977343265,-0.090818061,0.143369592,-0.152449,0.182501,-0.406684,1016.549011
900628,0.154597,0.029568,-0.081093,0.998216633,-0.11306398,0.130295,-0.151845,0.184751,-0.412081,1016.549011
900728,0.179468,0.042368,-0.094131,1.018871633,-0.130620612,0.126605816,-0.146225,0.185025,-0.419576,1016.549011
900828,0.199951,0.064456,-0.094977,1.040574184,-0.130650816,0.121873163,-0.144655,0.18619,-0.423523,1016.549011
900928,0.221841,0.083587,-0.0948,1.057258776,-0.112077449,0.104519592,-0.141572,0.181924,-0.429248,1016.549011
901028,0.259103,0.072198,-0.098218,1.060938673,-0.095845714,0.093256837,-0.139501,0.184078,-0.433145,1016.549011
901128,0.312362,0.066151,-0.10607,1.077300714,-0.087546122,0.100081633,-0.136451,0.182206,-0.436744,1016.549011
901228,0.363545,0.098947,-0.113046,1.127065,-0.088195204,0.121265714,-0.134829,0.176066,-0.444571,1016.549011
901328,0.392687,0.165201,-0.112226,1.193020408,-0.079722959,0.154836327,-0.130304,0.173126,-0.447221,1016.549011
901428,0.370264,0.225829,-0.098378,1.270673571,-0.044492041,0.214184286,-0.127835,0.166088,-0.447076,1016.549011
901528,0.303992,0.259129,-0.077552,1.354581429,-0.00038602,0.321498265,-0.119877,0.159484,-0.447404,1016.549011
901628,0.24383,0.308199,-0.058744,1.416305,0.050296735,0.422463673,-0.115009,0.147705,-0.442988,1016.549011
901728,0.171825,0.423192,-0.055151,1.439468878,0.109481939,0.476019388,-0.105633,0.139889,-0.439368,1016.549011
901828,0.100354,0.634846,-0.082688,1.423321939,0.148556429,0.460385306,-0.094369,0.129783,-0.430351,1016.544983
901928,0.052188,0.881162,-0.119855,1.396688265,0.134399898,0.389817245,-0.081597,0.117709,-0.422435,1016.544983
902028,0.041443,1.019341,-0.15713,1.373086735,0.103453367,0.218772653,-0.067991,0.102718,-0.406148,1016.544983
902128,0.065705,1.068267,-0.184101,1.398575408,0.072117041,0.072194898,-0.06185,0.091334,-0.389687,1016.544983
902228,0.118041,1.094312,-0.158672,1.422265102,0.039660102,-0.045453571,-0.054772,0.073336,-0.371056,1016.544983
902328,0.217033,0.916336,-0.077569,1.295823163,-0.005586837,-0.274308878,-0.055732,0.05876,-0.348251,1016.544983
902428,0.247182,0.46874,-0.005107,1.092462347,-0.009986122,-0.469115612,-0.061584,0.042013,-0.330573,1016.544983
902528,0.119308,-0.001157,0.04624,0.944420306,0.054152959,-0.512387347,-0.068817,0.031533,-0.318088,1016.544983
902628,-0.000474,-0.400508,0.069404,0.888967653,0.121661122,-0.444022551,-0.072461,0.021262,-0.3111,1016.544983
902728,-0.091817,-0.677622,0.064906,0.884729082,0.20391398,-0.333369694,-0.071454,0.017309,-0.312302,1016.544983
902828,-0.175479,-0.8141,0.038337,0.909168061,0.297482857,-0.195112653,-0.070941,0.020314,-0.312649,1016.544983
902928,-0.254006,-0.784776,0.015604,0.980869388,0.36912,-0.026595,-0.065281,0.022678,-0.322043,1016.544983
903028,-0.345157,-0.555825,0.025855,1.083111531,0.392002959,0.093425204,-0.060107,0.032024,-0.33108,1016.544983
903128,-0.430367,-0.209742,0.045216,1.169227857,0.367162245,0.104372857,-0.062408,0.044953,-0.339442,1016.544983
903228,-0.485502,0.07053,0.053279,1.177084184,0.313892143,0.018643061,-0.066824,0.056604,-0.341359,1016.544983
903328,-0.530305,0.18576,0.049418,1.150369694,0.250859694,-0.071673061,-0.074185,0.072384,-0.345072,1016.544983
903428,-0.569651,0.173237,0.049306,1.141387041,0.170712755,-0.121797449,-0.088035,0.085752,-0.348414,1016.544983
903528,-0.610642,0.12858,0.053415,1.112385408,0.082207857,-0.12661602,-0.10746,0.10243,-0.346082,1016.544983
903628,-0.621615,0.064912,0.062959,1.066190102,-0.005742041,-0.104080918,-0.124889,0.110654,-0.345181,1016.544983
903728,-0.565726,-0.006805,0.064928,1.018392653,-0.077590918,-0.06921398,-0.140781,0.122438,-0.346101,1016.544983
903828,-0.455715,-0.084611,0.068321,0.964948061,-0.113964286,-0.040909184,-0.156235,0.131081,-0.344175,1016.544983
903928,-0.329537,-0.188099,0.068631,0.903997959,-0.111240612,-0.025007041,-0.164181,0.134744,-0.344999,1016.544983
904028,-0.214511,-0.281828,0.065722,0.860662551,-0.087503571,-0.006825408,-0.169116,0.139901,-0.346746,1016.544983
904128,-0.118702,-0.343354,0.064568,0.831948163,-0.058771531,0.016032143,-0.170562,0.141042,-0.349195,1016.544983
904228,-0.036529,-0.372499,0.072633,0.820137143,-0.032848061,0.04895602,-0.16907,0.14498,-0.348491,1016.544983
904328,0.013525,-0.365852,0.081653,0.810398673,-0.002435408,0.067953061,-0.167948,0.147768,-0.354861,1016.544983
904428,0.029517,-0.331276,0.092541,0.799918367,0.028839694,0.076746939,-0.16291,0.148332,-0.357833,1016.544983
904528,0.027817,-0.272853,0.1067,0.786918265,0.052683163,0.082488571,-0.159456,0.145215,-0.356485,1016.544983
904628,0.021609,-0.186755,0.114693,0.77576898,0.074321429,0.08518102,-0.15292,0.14279,-0.360108,1016.544983
904728,0.0166,-0.094487,0.117095,0.763475204,0.085247245,0.077593265,-0.146409,0.141787,-0.362156,1016.544983
904828,0.014522,-0.02145,0.121808,0.751962449,0.090923776,0.065507041,-0.139363,0.140872,-0.366204,1016.544983
904928,0.012941,0.010146,0.124458,0.750547245,0.088215918,0.052572041,-0.125897,0.13971,-0.36725,1016.544983
905028,0.019014,0.001223,0.118454,0.754820816,0.080771633,0.038786735,-0.120854,0.137807,-0.370849,1016.544983
905128,0.040323,-0.028815,0.105348,0.766006122,0.070213367,0.029858367,-0.115245,0.137559,-0.37787,1016.544983
905228,0.070901,-0.055088,0.086613,0.781114592,0.05289551,0.024286633,-0.107193,0.136653,-0.382416,1016.544983
905328,0.101927,-0.08622,0.070051,0.795655306,0.03841449,0.022516429,-0.103638,0.138261,-0.385838,1016.544983
905428,0.130109,-0.141199,0.063739,0.812098878,0.027961837,0.023359694,-0.097102,0.135836,-0.389461,1016.544983
905528,0.15853,-0.217706,0.069914,0.828350408,0.03156602,0.033038061,-0.09755,0.132501,-0.392638,1016.544983
905628,0.179957,-0.283873,0.073758,0.84667898,0.054713878,0.059382755,-0.098591,0.133392,-0.390088,1016.544983
905728,0.196309,-0.31503,0.071959,0.854620204,0.084051224,0.093105,-0.098124,0.126361,-0.389444,1016.544983
905828,0.207788,-0.321734,0.064711,0.84854102,0.10813898,0.11840051,-0.10111,0.122945,-0.390123,1016.544983
905928,0.215607,-0.303307,0.049171,0.83615,0.118746122,0.140367755,-0.102577,0.117584,-0.392402,1016.544983
906028,0.225707,-0.259312,0.03747,0.823633878,0.118968367,0.156867755,-0.098658,0.111398,-0.389707,1016.544983
906128,0.226057,-0.194932,0.027847,0.817281327,0.110989898,0.164622143,-0.099103,0.105098,-0.393536,1016.544983
906228,0.23012,-0.127513,0.029449,0.820776837,0.099585408,0.159058265,-0.096055,0.101731,-0.397211,1016.544983
906328,0.238063,-0.064526,0.033659,0.839177449,0.092872755,0.149225204,-0.089529,0.098783,-0.400361,1016.544983
906428,0.247926,-0.00984,0.044304,0.872367347,0.085381224,0.144041531,-0.08145,0.097451,-0.406432,1016.544983
906528,0.247177,0.028664,0.054006,0.906143367,0.084779898,0.137598061,-0.076872,0.093161,-0.412157,1016.544983
906628,0.232187,0.042222,0.06388,0.937456735,0.096239592,0.144294694,-0.066249,0.090937,-0.421277,1016.544983
906728,0.215976,0.057604,0.076116,0.960030306,0.107159898,0.164294184,-0.065681,0.088133,-0.425428,1016.544983
906828,0.178557,0.087345,0.090404,0.983100612,0.120517245,0.16997949,-0.056155,0.086158,-0.429025,1016.544983
906928,0.117795,0.115886,0.0984,1.014335918,0.127010306,0.157971837,-0.05108,0.086818,-0.433996,1016.544983
907028,0.05735,0.138743,0.111323,1.057873265,0.13437,0.131872245,-0.049532,0.085444,-0.437071,1016.544983
907128,-0.008918,0.125623,0.135413,1.089271735,0.14266,0.103678878,-0.047936,0.085686,-0.442569,1016.544983
907228,-0.092186,0.088114,0.165393,1.133523673,0.169986224,0.075802143,-0.044966,0.08559,-0.441568,1016.544983
907328,-0.195662,0.038015,0.180743,1.184518878,0.197097449,0.096045204,-0.047452,0.088121,-0.441442,1016.544983
907428,-0.296748,0.014856,0.186194,1.220151224,0.201731939,0.144342551,-0.047413,0.089214,-0.44339,1016.544983
907528,-0.34645,0.036267,0.180282,1.24332949,0.178630714,0.203883265,-0.048913,0.091206,-0.442789,1016.544983
907628,-0.319531,0.108613,0.16114,1.270006939,0.144147755,0.286761122,-0.046902,0.091223,-0.443788,1016.544983
907728,-0.260026,0.241775,0.136815,1.322512143,0.100380204,0.37186102,-0.040424,0.097573,-0.442956,1016.544983
907828,-0.179495,0.450695,0.109434,1.414530714,0.040486837,0.423511122,-0.03248,0.098869,-0.441378,1016.544983
907928,-0.065543,0.690891,0.0926,1.498609796,-0.028962653,0.398592449,-0.021663,0.097337,-0.433928,1016.544983
908028,0.014182,0.860251,0.099995,1.513071429,-0.087481327,0.275563367,-0.009468,0.092503,-0.420633,1016.544983
908128,0.047558,0.904063,0.117904,1.468012143,-0.085889592,0.13615102,-0.003899,0.086889,-0.399368,1016.544983
908228,0.06333,0.879695,0.13494,1.439738673,-0.064119796,0.045919388,-0.000848,0.076283,-0.377358,1016.544983
908328,0.047442,0.847736,0.145166,1.40049602,-0.03120898,-0.030769694,-0.003869,0.064536,-0.350403,1016.542786
908428,-0.009473,0.742946,0.113815,1.323191429,0.035838469,-0.177953571,-0.012829,0.053976,-0.325399,1016.542786
908528,-0.030432,0.503253,0.067682,1.198226224,0.094277959,-0.333861122,-0.034739,0.043621,-0.300398,1016.542786
908628,-0.033557,0.20921,-0.008781,1.074672245,0.090121327,-0.430300714,-0.052969,0.038674,-0.285138,1016.542786
908728,-0.03929,-0.07845,-0.1,0.990052653,0.006983469,-0.43373602,-0.075548,0.04059,-0.276047,1016.542786
908828,-0.036773,-0.335051,-0.130887,0.937156122,-0.067207857,-0.362488571,-0.098948,0.04248,-0.276478,1016.542786
908928,-0.045484,-0.522249,-0.11287,0.919980102,-0.125122755,-0.248389796,-0.110812,0.046374,-0.280802,1016.542786
909028,0.031061,-0.59846,-0.080218,0.966857041,-0.199632245,-0.078389388,-0.12317,0.053265,-0.284974,1016.542786
909128,0.187136,-0.484409,-0.056671,1.067983367,-0.245854082,0.036971327,-0.130537,0.055143,-0.290398,1016.542786
909228,0.345829,-0.253038,-0.048164,1.147298061,-0.245481735,0.063962653,-0.132508,0.056718,-0.291322,1016.542786
909328,0.454326,-0.043669,-0.046082,1.159785714,-0.199888163,0.016487347,-0.137915,0.056001,-0.295373,1016.542786
909428,0.486452,0.03526,-0.054531,1.134716939,-0.131849082,-0.048543265,-0.142461,0.051942,-0.292578,1016.542786
909528,0.474154,0.022208,-0.070399,1.105806327,-0.06355898,-0.057687347,-0.149447,0.050035,-0.292183,1016.542786
909628,0.448277,-0.025288,-0.082467,1.062236837,0.010779796,-0.033324898,-0.156919,0.044698,-0.292964,1016.542786
909728,0.369366,-0.083252,-0.088423,1.003452959,0.090102653,-0.002225714,-0.166425,0.04226,-0.291095,1016.542786
909828,0.266039,-0.111334,-0.101407,0.93885,0.160003163,0.020689184,-0.175913,0.039871,-0.290225,1016.542786
909928,0.156433,-0.12505,-0.119453,0.862451327,0.202432755,0.021496224,-0.182302,0.041686,-0.294649,1016.546204
910028,0.054924,-0.146643,-0.149624,0.793120306,0.205182551,0.01224949,-0.192749,0.044367,-0.295025,1016.546204
910128,-0.036788,-0.166712,-0.176915,0.751662143,0.17847449,0.014327959,-0.197654,0.045635,-0.298975,1016.546204
910228,-0.121285,-0.177718,-0.189978,0.729527857,0.133944184,0.030597347,-0.203013,0.055453,-0.303991,1016.546204
910328,-0.180335,-0.169906,-0.182228,0.726466327,0.07639398,0.056876122,-0.20388,0.060764,-0.310235,1016.546204
910428,-0.207036,-0.140126,-0.161984,0.734587449,0.024501735,0.073229082,-0.212664,0.069312,-0.318828,1016.546204
910528,-0.189099,-0.112845,-0.141621,0.741045918,-0.019993673,0.076002041,-0.21451,0.078649,-0.325368,1016.546204
910628,-0.156384,-0.092196,-0.126879,0.746766531,-0.050273878,0.081876735,-0.219378,0.085469,-0.330538,1016.546204
910728,-0.130563,-0.05815,-0.119923,0.758376224,-0.063810918,0.087855816,-0.221289,0.094638,-0.33358,1016.546204
910828,-0.118783,-0.017638,-0.115464,0.770884694,-0.069670612,0.082649082,-0.226524,0.101804,-0.345746,1016.546204
910928,-0.120225,0.007246,-0.10895,0.775735408,-0.05947898,0.063942551,-0.227424,0.109012,-0.349889,1016.546204
911028,-0.11858,0.00258,-0.104702,0.780252959,-0.047880408,0.051190408,-0.230798,0.11531,-0.355083,1016.546204
911128,-0.115821,-0.014303,-0.094122,0.788016939,-0.038525306,0.047017347,-0.235166,0.122622,-0.360227,1016.546204
911228,-0.126427,-0.032675,-0.076729,0.79870051,-0.033760918,0.039795918,-0.240046,0.127924,-0.364972,1016.546204
911328,-0.141788,-0.061601,-0.058026,0.818819082,-0.034928878,0.038790714,-0.242414,0.134231,-0.370666,1016.546204
911428,-0.154635,-0.089859,-0.041883,0.846613776,-0.042625408,0.052325204,-0.248268,0.136134,-0.377089,1016.546204
911528,-0.162567,-0.120505,-0.027993,0.877674694,-0.055595714,0.067370408,-0.251613,0.143003,-0.383757,1016.547974
911628,-0.171879,-0.149956,-0.017037,0.901210816,-0.078487347,0.084860714,-0.257067,0.146626,-0.38458,1016.547974
911728,-0.177563,-0.181558,0.001208,0.909863776,-0.088209184,0.101913878,-0.260924,0.150988,-0.390876,1016.547974
911828,-0.172409,-0.205927,0.016114,0.904624592,-0.088167653,0.119627653,-0.265309,0.153791,-0.395748,1016.547974
911928,-0.150963,-0.217256,0.027904,0.884156122,-0.083426531,0.139052551,-0.268233,0.154007,-0.399248,1016.547974
912028,-0.117233,-0.208473,0.033359,0.862749592,-0.07835602,0.162122347,-0.269149,0.157703,-0.403069,1016.547974
912128,-0.077293,-0.176218,0.029724,0.851477755,-0.07799398,0.187043163,-0.271016,0.160041,-0.409465,1016.547974
912228,-0.0412,-0.132067,0.012874,0.855796633,-0.080629898,0.201516429,-0.267416,0.161271,-0.415411,1016.547974
912328,-0.014259,-0.08794,-0.018141,0.869476939,-0.078933265,0.213709592,-0.265308,0.163521,-0.421306,1016.547974
912428,0.014102,-0.037574,-0.040768,0.893703469,-0.078615306,0.221843673,-0.258737,0.165154,-0.426226,1016.547974
912528,0.039041,0.015625,-0.055943,0.929449082,-0.083843673,0.210539592,-0.253571,0.174975,-0.434738,1016.547974
912628,0.075328,0.080147,-0.061871,0.957573367,-0.086080612,0.184281429,-0.247476,0.1732,-0.441336,1016.547974
912728,0.110609,0.095686,-0.058832,0.961575204,-0.090699898,0.151218265,-0.24489,0.174896,-0.446257,1016.547974
912828,0.132763,0.062919,-0.053612,0.971025612,-0.110190918,0.128354796,-0.242312,0.177066,-0.450653,1016.547974
912928,0.167931,0.030969,-0.049717,0.989220612,-0.120906122,0.119535306,-0.240699,0.176359,-0.457201,1016.547974
913028,0.221231,0.013846,-0.055593,1.009483469,-0.117148571,0.097362041,-0.234623,0.174038,-0.462824,1016.547974
913128,0.277281,-0.027635,-0.069524,1.032811837,-0.110946735,0.073628776,-0.23304,0.171764,-0.467948,1016.547974
913228,0.352186,-0.059273,-0.085143,1.080912143,-0.118041735,0.090789592,-0.229515,0.167345,-0.470675,1016.547974
913328,0.437374,-0.022078,-0.090211,1.167489592,-0.130258571,0.137887143,-0.226475,0.159495,-0.474579,1016.547974
913428,0.491506,0.043686,-0.082168,1.283231429,-0.126292653,0.186263776,-0.226454,0.150125,-0.477061,1016.547974
913528,0.487482,0.114432,-0.06715,1.421079796,-0.090233367,0.277598673,-0.220545,0.137952,-0.47517,1016.547974
913628,0.442153,0.217615,-0.043558,1.539597551,-0.027754694,0.39548449,-0.217174,0.124702,-0.470831,1016.547974
913728,0.345583,0.363628,-0.019451,1.587352551,0.051995102,0.467455408,-0.209927,0.107636,-0.461171,1016.547974
913828,0.223873,0.560876,-0.021544,1.566108571,0.133684694,0.4932,-0.199688,0.092017,-0.451434,1016.547974
913928,0.094669,0.791141,-0.063389,1.499106429,0.195365714,0.472836735,-0.191572,0.071135,-0.435454,1016.547974
914028,0.025788,0.990323,-0.127334,1.413511633,0.201903776,0.389095,-0.183473,0.051201,-0.418424,1016.547974
914128,0.015169,1.056713,-0.19624,1.346766327,0.186051633,0.220389388,-0.174918,0.028173,-0.399547,1016.547974
914228,0.026152,1.027184,-0.242851,1.324786633,0.155212653,0.055871633,-0.174341,0.006244,-0.380121,1016.547974
914328,0.063879,0.902736,-0.250643,1.297217857,0.099327959,-0.104111327,-0.177325,-0.010365,-0.35592,1016.547974
914428,0.137467,0.693291,-0.206343,1.205977347,0.02644898,-0.256719082,-0.187228,-0.027716,-0.334769,1016.547974
914528,0.193676,0.380938,-0.126634,1.063068265,-0.020665,-0.368474796,-0.200551,-0.043847,-0.317068,1016.547974
914628,0.145347,0.048575,-0.040648,0.94046949,-0.030345,-0.387802551,-0.210836,-0.05841,-0.301789,1016.547974
914728,0.034675,-0.238917,0.031371,0.848161122,0.016179388,-0.339506224,-0.220528,-0.066786,-0.290703,1016.547974
914828,-0.033778,-0.446258,0.061931,0.810731122,0.110059592,-0.269048673,-0.225608,-0.074895,-0.286612,1016.547302
914928,-0.067556,-0.554624,0.053083,0.826414898,0.221486224,-0.178337245,-0.21917,-0.08055,-0.285391,1016.547302
915028,-0.086163,-0.56379,0.036628,0.881803878,0.328688265,-0.068022551,-0.207671,-0.078145,-0.287259,1016.547302
915128,-0.13752,-0.474843,0.028203,1.000429184,0.386458776,0.007608673,-0.200128,-0.069649,-0.289824,1016.547302
915228,-0.221854,-0.301796,0.031569,1.135928469,0.393412245,0.028626429,-0.194959,-0.062793,-0.298988,1016.547302
915328,-0.302893,-0.13276,0.037894,1.214905714,0.370549592,0.008675612,-0.192333,-0.04959,-0.304325,1016.547302
915428,-0.356071,-0.021194,0.032895,1.218625612,0.301410714,-0.030525918,-0.197707,-0.031872,-0.307436,1016.547302
915528,-0.39379,0.011794,0.030438,1.211620102,0.196515918,-0.059997041,-0.211096,-0.01811,-0.308753,1016.547302
915628,-0.439254,0.006918,0.027968,1.180187653,0.078016837,-0.068555102,-0.231884,-0.005532,-0.314147,1016.547302
915728,-0.49735,-0.014651,0.027387,1.119512449,-0.032553571,-0.083662449,-0.251277,0.008253,-0.313968,1016.547302
915828,-0.541356,-0.094767,0.041419,1.037087755,-0.090937347,-0.097337959,-0.270171,0.017569,-0.314516,1016.547302
915928,-0.506393,-0.207304,0.062142,0.967026633,-0.098171429,-0.075013367,-0.28657,0.024379,-0.31569,1016.547302
916028,-0.367504,-0.306324,0.06836,0.908557959,-0.068310408,-0.023473265,-0.302988,0.030643,-0.31589,1016.547302
916128,-0.199133,-0.366218,0.055045,0.875865408,-0.033468061,0.033548776,-0.308439,0.03576,-0.316637,1016.547302
916228,-0.063054,-0.361683,0.042422,0.858192041,-0.007666327,0.092399796,-0.313384,0.035437,-0.318664,1016.547302
916328,0.019045,-0.315551,0.036126,0.840499184,0.009040102,0.127297041,-0.315372,0.03796,-0.318537,1016.547302
916428,0.053061,-0.270894,0.04226,0.809651122,0.017938571,0.135078367,-0.31139,0.036402,-0.318612,1016.549011
916528,0.056595,-0.225834,0.056885,0.773654694,0.025694082,0.126314286,-0.304867,0.036918,-0.321084,1016.549011
916628,0.050554,-0.17966,0.075377,0.740676633,0.029306122,0.110491735,-0.296912,0.033778,-0.320734,1016.549011
916728,0.041959,-0.126594,0.094396,0.705728571,0.031414184,0.092096939,-0.290932,0.035178,-0.320656,1016.549011
916828,0.025863,-0.083181,0.125138,0.681771735,0.026961122,0.065191122,-0.27895,0.034563,-0.322177,1016.549011
916928,0.002815,-0.062744,0.160353,0.677129388,0.022097653,0.037434286,-0.268473,0.03295,-0.323249,1016.549011
917028,-0.005141,-0.085675,0.193105,0.687541224,0.024485816,0.018552143,-0.258521,0.027311,-0.323526,1016.549011
917128,0.004359,-0.138233,0.216016,0.708427245,0.028835612,0.013533878,-0.247478,0.027853,-0.327995,1016.549011
917228,0.036505,-0.173,0.228121,0.735548878,0.034426327,0.022585,-0.240403,0.02701,-0.333542,1016.549011
917328,0.077697,-0.185933,0.226977,0.759081837,0.040065,0.030623265,-0.233865,0.025582,-0.337115,1016.549011
917428,0.116222,-0.187955,0.216368,0.779296122,0.043917755,0.027937857,-0.226802,0.023719,-0.342212,1016.549011
917528,0.155206,-0.192939,0.194166,0.802215408,0.051332041,0.020568163,-0.220287,0.024709,-0.344158,1016.549011
917628,0.18001,-0.211221,0.163061,0.823797041,0.065932449,0.02244449,-0.218624,0.025617,-0.353129,1016.549011
917728,0.193192,-0.240057,0.130425,0.847950204,0.086497959,0.049795306,-0.21752,0.023897,-0.359228,1016.549011
917828,0.208921,-0.245616,0.101317,0.868751122,0.111505306,0.088828673,-0.217986,0.026469,-0.360601,1016.549011
917928,0.21388,-0.216596,0.078734,0.87425449,0.135416429,0.120414286,-0.219414,0.022201,-0.364828,1016.549011
918028,0.202089,-0.162899,0.068404,0.86642102,0.153646633,0.158912347,-0.217279,0.024025,-0.372248,1016.550781
918128,0.177105,-0.113438,0.059675,0.858123673,0.150973878,0.20303102,-0.217762,0.027046,-0.372596,1016.550781
918228,0.138219,-0.025069,0.055851,0.868526939,0.138053469,0.232874184,-0.216581,0.031972,-0.381863,1016.550781
918328,0.122341,0.088696,0.059415,0.887038469,0.124412755,0.22560398,-0.209994,0.032159,-0.387859,1016.550781
918428,0.125917,0.203813,0.064032,0.905959898,0.118421633,0.192657041,-0.203913,0.032827,-0.393329,1016.550781
918528,0.134226,0.279536,0.061307,0.912902449,0.109562143,0.162697041,-0.196796,0.03507,-0.400723,1016.550781
918628,0.133783,0.302283,0.059446,0.916377245,0.098011633,0.164898469,-0.188713,0.036229,-0.406667,1016.550781
918728,0.107153,0.303903,0.066721,0.934023163,0.08822602,0.178745816,-0.183043,0.044572,-0.415755,1016.550781
918828,0.057969,0.294431,0.077825,0.95607051,0.08378051,0.174825612,-0.173459,0.043738,-0.422301,1016.550781
918928,-0.00074,0.2904,0.096033,0.985208673,0.085397143,0.161769388,-0.165801,0.049059,-0.43154,1016.550781
919028,-0.051327,0.285684,0.113313,1.005715918,0.099333163,0.121380714,-0.160759,0.052114,-0.434385,1016.550781
919128,-0.106286,0.246851,0.125,1.02946,0.124302449,0.074261429,-0.152663,0.05529,-0.440728,1016.550781
919228,-0.177012,0.179447,0.125692,1.076965408,0.159178163,0.058280612,-0.15055,0.06053,-0.446471,1016.550781
919328,-0.255745,0.133289,0.118826,1.152501429,0.186193776,0.096016633,-0.149506,0.066091,-0.44819,1016.550781
919428,-0.321314,0.125867,0.107996,1.222532449,0.185146122,0.170120612,-0.147434,0.069241,-0.452036,1016.550781
919528,-0.34436,0.157682,0.085049,1.281561429,0.167300612,0.279497041,-0.14743,0.071732,-0.451909,1016.550781
919628,-0.305269,0.221503,0.057793,1.323786633,0.12733551,0.384043163,-0.145005,0.071026,-0.448435,1016.549011
919728,-0.231539,0.352905,0.038022,1.370018571,0.067861429,0.453496633,-0.135595,0.071728,-0.445382,1016.549011
919828,-0.128913,0.562196,0.053028,1.436385204,-0.01947898,0.459496122,-0.129336,0.064618,-0.434715,1016.549011
919928,-0.044121,0.805074,0.054888,1.505137857,-0.081056633,0.381803061,-0.118623,0.061825,-0.421818,1016.549011
920028,0.01856,0.988092,0.083587,1.500085816,-0.131407449,0.27101051,-0.106492,0.052363,-0.405752,1016.549011
920128,0.032963,1.093866,0.139762,1.474401122,-0.103534694,0.128146939,-0.10307,0.037949,-0.377423,1016.549011
920228,0.001163,1.084169,0.190527,1.471581633,-0.047335816,0.015098163,-0.101109,0.021662,-0.351195,1016.549011
920328,-0.02343,0.993559,0.196455,1.447945714,0.036365408,-0.077306327,-0.114186,0.004375,-0.320024,1016.549011
920428,-0.034573,0.782788,0.128724,1.326132449,0.135064898,-0.259605204,-0.140059,-0.008833,-0.296677,1016.549011
920528,-0.07068,0.480021,-0.005826,1.196133061,0.140594796,-0.411202041,-0.16633,-0.022766,-0.278878,1016.549011
920628,-0.094558,0.165319,-0.122777,1.11284398,0.03906449,-0.432300918,-0.199435,-0.031268,-0.267824,1016.549011
920728,-0.102998,-0.135507,-0.154661,1.028899184,-0.053779898,-0.387297857,-0.225899,-0.035477,-0.265062,1016.549011
920828,-0.145867,-0.423791,-0.126057,0.95545949,-0.121634082,-0.298924286,-0.252782,-0.036497,-0.266147,1016.549011
920928,-0.119512,-0.623166,-0.090498,0.938672755,-0.19932602,-0.128446122,-0.270642,-0.032557,-0.269473,1016.549011
921028,0.006242,-0.627139,-0.068089,0.996958061,-0.252376939,0.018551939,-0.279652,-0.035998,-0.267654,1016.549011
921128,0.175685,-0.407545,-0.04839,1.099708163,-0.267048367,0.106307449,-0.286119,-0.03637,-0.268182,1016.549011
921228,0.330796,-0.110044,-0.037717,1.157093265,-0.234347143,0.118029592,-0.2916,-0.042237,-0.268988,1016.549011
921328,0.432522,0.086739,-0.043253,1.145114592,-0.159835918,0.07083449,-0.293143,-0.048787,-0.267319,1016.550781
921428,0.480998,0.14924,-0.058228,1.117934082,-0.079958878,0.050296531,-0.297247,-0.058455,-0.262305,1016.550781
921528,0.490805,0.149692,-0.073477,1.08413898,0.002153061,0.048631224,-0.306269,-0.063913,-0.260089,1016.550781
921628,0.454044,0.117894,-0.095193,1.030316633,0.089872959,0.028369694,-0.310831,-0.071484,-0.256972,1016.550781
921728,0.381833,0.058883,-0.126086,0.950024286,0.152187143,0.01632898,-0.319861,-0.075971,-0.254205,1016.550781
921828,0.308176,0.003679,-0.167067,0.868079796,0.182590612,0.021948469,-0.323805,-0.078776,-0.256858,1016.550781
921928,0.232837,-0.043186,-0.212532,0.795372245,0.181985816,0.035884082,-0.326668,-0.075925,-0.263229,1016.550781
922028,0.14653,-0.079913,-0.242848,0.748459694,0.156523265,0.048601122,-0.327057,-0.071666,-0.268524,1016.550781
922128,0.047305,-0.11578,-0.251933,0.723312449,0.110172551,0.055896939,-0.323467,-0.066498,-0.273267,1016.550781
922228,-0.043586,-0.157078,-0.23498,0.711109694,0.055495204,0.056437959,-0.320355,-0.059282,-0.278908,1016.550781
922328,-0.09509,-0.187222,-0.19831,0.712520204,0.000579286,0.064872653,-0.32122,-0.053472,-0.285126,1016.550781
922428,-0.110387,-0.188084,-0.157226,0.725372143,-0.037088878,0.080836429,-0.318997,-0.043484,-0.296138,1016.550781
922528,-0.108848,-0.153615,-0.119272,0.739731327,-0.056585714,0.096419694,-0.316885,-0.033784,-0.301153,1016.550781
922628,-0.09902,-0.105509,-0.094346,0.74893,-0.060123469,0.101555,-0.317818,-0.029638,-0.303949,1016.550781
922728,-0.098683,-0.06361,-0.081995,0.753005204,-0.055073673,0.099617245,-0.318126,-0.021699,-0.313064,1016.550781
922828,-0.113951,-0.039953,-0.084753,0.755155408,-0.042138163,0.09525449,-0.314489,-0.015414,-0.320255,1016.550781
922928,-0.130254,-0.029616,-0.090326,0.756703163,-0.033128265,0.097339898,-0.315326,-0.009034,-0.327948,1016.545044
923028,-0.144574,-0.02719,-0.08188,0.770750816,-0.028320204,0.102519898,-0.314683,-0.000733,-0.334538,1016.545044
923128,-0.17161,-0.017209,-0.069865,0.782670612,-0.019262347,0.092849388,-0.311993,0.007182,-0.344153,1016.545044
923228,-0.201126,-0.02556,-0.059162,0.790726327,-0.015508163,0.074665204,-0.311819,0.01656,-0.352192,1016.545044
923328,-0.222457,-0.06717,-0.057187,0.791325204,-0.025372755,0.070331939,-0.307679,0.025328,-0.359256,1016.545044
923428,-0.22784,-0.15994,-0.052823,0.799493776,-0.042528367,0.080145204,-0.308023,0.034167,-0.366321,1016.545044
923528,-0.213252,-0.252246,-0.048711,0.823861531,-0.059284082,0.100716531,-0.306402,0.042902,-0.371887,1016.545044
923628,-0.195637,-0.311243,-0.039192,0.850315816,-0.079788878,0.124788571,-0.307728,0.048815,-0.380104,1016.545044
923728,-0.185002,-0.332891,-0.021506,0.858594388,-0.099565714,0.149223571,-0.30758,0.053661,-0.387373,1016.545044
923828,-0.184229,-0.322082,-0.004831,0.866747347,-0.112539592,0.178827449,-0.309471,0.058916,-0.392117,1016.545044
923928,-0.177166,-0.268099,0.003232,0.876566327,-0.107809694,0.205766531,-0.307831,0.062741,-0.399436,1016.545044
924028,-0.147039,-0.218308,-0.003856,0.87664898,-0.099009592,0.209576837,-0.303749,0.064911,-0.404331,1016.545044
924128,-0.102289,-0.19837,-0.021347,0.875634184,-0.097448673,0.199806531,-0.30414,0.068173,-0.409677,1016.545044
924228,-0.050586,-0.186592,-0.044216,0.88754051,-0.106706122,0.209399286,-0.300544,0.071871,-0.414996,1016.545044
924328,0.001046,-0.167262,-0.063615,0.912311327,-0.111289184,0.223468571,-0.296965,0.071558,-0.420018,1016.545044
924428,0.042343,-0.148199,-0.076341,0.944256224,-0.108042857,0.22939602,-0.295385,0.078204,-0.423686,1016.545044
924528,0.073929,-0.115709,-0.078099,0.963262143,-0.096722959,0.223194898,-0.290296,0.075923,-0.429809,1016.545044
924628,0.106964,-0.072489,-0.085339,0.971029082,-0.086838469,0.211081327,-0.2892,0.080133,-0.434604,1016.545044
924728,0.142041,-0.012499,-0.097082,0.973046122,-0.078176837,0.202620408,-0.284685,0.077169,-0.436754,1016.545044
924828,0.1858,0.053139,-0.115156,0.986481429,-0.071653469,0.194559388,-0.279612,0.076335,-0.441801,1016.545044
924928,0.245596,0.097685,-0.133304,1.019514388,-0.069592041,0.179549592,-0.274579,0.074407,-0.4449,1016.545044
925028,0.30816,0.104499,-0.147419,1.058001939,-0.082211735,0.172112041,-0.27157,0.069948,-0.446627,1016.545044
925128,0.370974,0.08628,-0.147551,1.102151327,-0.100885306,0.177093776,-0.270052,0.067505,-0.448253,1016.545044
925228,0.414205,0.091785,-0.137399,1.154921327,-0.110350408,0.198991939,-0.267564,0.061013,-0.449082,1016.545044
925328,0.434135,0.143238,-0.119716,1.216005918,-0.089157245,0.242430408,-0.262097,0.053951,-0.449436,1016.545044
925428,0.408855,0.215389,-0.100103,1.271598367,-0.045300918,0.297325,-0.257187,0.045257,-0.446868,1016.545044
925528,0.336481,0.271143,-0.084055,1.328552143,0.015324592,0.382565102,-0.254823,0.035961,-0.441327,1016.545044
925628,0.236218,0.326224,-0.071051,1.373216429,0.074048367,0.470787755,-0.247979,0.025596,-0.435835,1016.545044
925728,0.127336,0.404702,-0.071007,1.395546531,0.129856531,0.540377041,-0.239719,0.013023,-0.426446,1016.545044
925828,0.016568,0.568184,-0.087553,1.406063061,0.16289449,0.538578163,-0.231012,-0.002668,-0.41471,1016.545044
925928,-0.058769,0.739179,-0.11964,1.385758061,0.15459602,0.440948571,-0.221893,-0.014622,-0.397773,1016.545044
926028,-0.07215,0.857488,-0.164257,1.360642143,0.138673469,0.306159286,-0.215325,-0.029173,-0.377965,1016.545044
926128,-0.032357,0.916265,-0.20252,1.355250612,0.117280408,0.141522755,-0.211753,-0.047661,-0.358361,1016.546753
926228,0.012293,0.868739,-0.215533,1.386924184,0.086949694,-0.012859082,-0.219107,-0.063413,-0.340132,1016.546753
926328,0.042629,0.686431,-0.167368,1.405751837,0.021703776,-0.165459898,-0.232996,-0.081199,-0.319009,1016.546753
926428,0.09002,0.353969,-0.068216,1.326164082,-0.034760714,-0.332069184,-0.256215,-0.096504,-0.304784,1016.546753
926528,0.036283,-0.051656,0.011514,1.158593163,-0.028596224,-0.413399898,-0.281374,-0.108171,-0.292881,1016.546753
926628,-0.04956,-0.410224,0.076822,0.997979898,0.020793061,-0.35673602,-0.30642,-0.11905,-0.28695,1016.546753
926728,-0.053816,-0.63316,0.096217,0.915049592,0.08242051,-0.237436224,-0.32898,-0.121546,-0.279587,1016.546753
926828,0.012035,-0.729418,0.052934,0.864557653,0.172197959,-0.128453469,-0.335487,-0.123509,-0.278191,1016.546753
926928,0.052125,-0.759702,-0.015119,0.832456939,0.278666939,-0.031297245,-0.339032,-0.125093,-0.27527,1016.546753
927028,-0.015976,-0.705772,-0.066612,0.848440714,0.348892041,0.04960949,-0.336037,-0.121652,-0.275091,1016.546753
927128,-0.141268,-0.524018,-0.078683,0.948387143,0.341525408,0.097120408,-0.32797,-0.11359,-0.27918,1016.546753
927228,-0.247436,-0.300007,-0.041767,1.08256398,0.280724286,0.071967143,-0.323864,-0.102926,-0.284143,1016.546753
927328,-0.301043,-0.155195,0.00824,1.141162143,0.233690306,0.004791837,-0.323184,-0.089571,-0.291979,1016.546753
927428,-0.325975,-0.132851,0.034126,1.170293673,0.181934592,-0.036609592,-0.323102,-0.074479,-0.294216,1016.546753
927528,-0.378115,-0.155617,0.068023,1.196372755,0.107928163,-0.034576939,-0.326437,-0.062129,-0.300605,1016.546753
927628,-0.445002,-0.146993,0.100192,1.180497551,0.023032449,-0.013814184,-0.336243,-0.047185,-0.306868,1016.546753
927728,-0.473058,-0.126265,0.114844,1.123085306,-0.040607755,-0.008337449,-0.344609,-0.036371,-0.310836,1016.548523
927828,-0.448073,-0.132603,0.105959,1.049232551,-0.069470918,-0.02259102,-0.353972,-0.02604,-0.314829,1016.548523
927928,-0.380322,-0.17267,0.090821,0.977076224,-0.058116327,-0.036620918,-0.358863,-0.0168,-0.318372,1016.548523
928028,-0.271328,-0.233381,0.063126,0.911572755,-0.030404694,-0.027961531,-0.367256,-0.011016,-0.321593,1016.548523
928128,-0.13806,-0.290367,0.024034,0.867369592,0.00323898,-0.005012653,-0.368238,-0.003029,-0.321187,1016.548523
928228,-0.017985,-0.325446,-0.012609,0.849821531,0.029229694,0.029606327,-0.371638,-0.001262,-0.32561,1016.548523
928328,0.080157,-0.333362,-0.034064,0.842256327,0.041782143,0.064344184,-0.373104,-0.000668,-0.327085,1016.548523
928428,0.141068,-0.311597,-0.036227,0.835571122,0.04944602,0.085126122,-0.371107,0.001791,-0.326957,1016.548523
928528,0.160367,-0.269226,-0.022603,0.831380714,0.055716939,0.098268469,-0.369601,0.003287,-0.32738,1016.548523
928628,0.129923,-0.210329,-0.001602,0.822663367,0.062152449,0.113817143,-0.362623,0.005667,-0.327251,1016.548523
928728,0.086139,-0.155057,0.021456,0.79649898,0.070295,0.122813571,-0.361568,0.00729,-0.330173,1016.548523
928828,0.05869,-0.094962,0.040416,0.770218673,0.085987857,0.108188673,-0.356111,0.005162,-0.329274,1016.548523
928928,0.055033,-0.035413,0.048609,0.760965816,0.08743051,0.089374694,-0.354105,0.007148,-0.329671,1016.548523
929028,0.066272,-0.001748,0.049199,0.757196837,0.072230612,0.066952857,-0.34362,0.010518,-0.33049,1016.548523
929128,0.092907,0.003108,0.046169,0.764947041,0.055849286,0.058705,-0.341082,0.011096,-0.332963,1016.548523
929228,0.127523,-0.019588,0.047016,0.773944592,0.045049694,0.054651429,-0.333556,0.010126,-0.33601,1016.548523
929328,0.158189,-0.068358,0.05432,0.782275,0.036854388,0.046772245,-0.331084,0.010038,-0.33501,1016.548523
929428,0.184455,-0.122116,0.065744,0.800097551,0.034189286,0.04010102,-0.323034,0.013094,-0.338853,1016.548523
929528,0.210029,-0.170386,0.07405,0.821753061,0.045130102,0.047914694,-0.321068,0.013987,-0.337302,1016.548523
929628,0.243158,-0.199209,0.066466,0.837420918,0.06719449,0.061173265,-0.319559,0.01152,-0.338428,1016.548523
929728,0.273093,-0.206993,0.039537,0.839495918,0.09801551,0.08382449,-0.319044,0.011062,-0.339453,1016.548523
929828,0.292192,-0.195765,0.005077,0.827786735,0.123513265,0.108446633,-0.324066,0.009052,-0.337557,1016.548523
929928,0.306641,-0.162187,-0.03386,0.813070408,0.134946327,0.1323,-0.3215,0.009703,-0.34153,1016.548523
930028,0.31334,-0.116136,-0.0582,0.79728898,0.139616429,0.151453571,-0.323516,0.012154,-0.339904,1016.548523
930128,0.305197,-0.075714,-0.067798,0.787504286,0.144419694,0.161963673,-0.319487,0.010716,-0.342478,1016.548523
930228,0.285405,-0.044486,-0.068661,0.79642602,0.142380918,0.173863367,-0.31844,0.012814,-0.344875,1016.548523
930328,0.262115,-0.010156,-0.058762,0.830364184,0.13594102,0.191340306,-0.311397,0.010405,-0.348998,1016.548523
930428,0.25259,0.041025,-0.041781,0.872704898,0.133781122,0.211782143,-0.302854,0.015919,-0.352215,1016.548523
930528,0.245605,0.101341,-0.025516,0.906956224,0.137104082,0.208615816,-0.293831,0.01642,-0.355185,1016.548523
930628,0.235365,0.139879,-0.013577,0.935657245,0.144525714,0.202948265,-0.28483,0.020335,-0.356478,1016.548523
930728,0.216043,0.164805,-0.007919,0.95698051,0.156693571,0.207698265,-0.276807,0.023817,-0.358797,1016.548523
930828,0.182962,0.201238,-0.005388,0.973147449,0.159086633,0.207232041,-0.269775,0.025346,-0.361718,1016.548523
930928,0.132536,0.248921,0.005729,0.976105918,0.155437959,0.196208469,-0.263795,0.026746,-0.36164,1016.548523
931028,0.07454,0.283784,0.01832,0.979212041,0.144199592,0.17512602,-0.258311,0.02915,-0.361511,1016.544495
931128,0.020411,0.301462,0.034782,0.988778571,0.130318878,0.166425306,-0.256265,0.033224,-0.363806,1016.544495
931228,-0.034189,0.275661,0.059268,1.010061837,0.129179898,0.145033673,-0.253848,0.03349,-0.359782,1016.544495
931328,-0.093898,0.187243,0.084321,1.038665918,0.146442857,0.113905816,-0.250378,0.034383,-0.35873,1016.544495
931428,-0.15549,0.089153,0.101179,1.073506633,0.176085816,0.123749184,-0.244425,0.036209,-0.357127,1016.544495
931528,-0.214655,0.079037,0.114684,1.115276531,0.189377449,0.17287949,-0.247459,0.036634,-0.354604,1016.544495
931628,-0.233053,0.153806,0.121024,1.151727755,0.17768551,0.244712347,-0.244995,0.037519,-0.353053,1016.544495
931728,-0.203335,0.260981,0.126251,1.193254286,0.152289286,0.326121531,-0.242545,0.040847,-0.350375,1016.544495
931828,-0.123486,0.365008,0.129562,1.243513163,0.11413898,0.400064082,-0.238147,0.039562,-0.345926,1016.544495
931928,-0.029521,0.488683,0.136942,1.312766837,0.05346398,0.445660816,-0.230374,0.038432,-0.335453,1016.544495
932028,0.043165,0.674189,0.146991,1.408985,-0.014317755,0.434482245,-0.223643,0.032238,-0.323236,1016.544495
932128,0.109783,0.889345,0.185822,1.454001633,-0.080174592,0.371588367,-0.217473,0.026881,-0.307468,1016.544495
932228,0.17268,1.038104,0.238677,1.438743469,-0.071408776,0.256382245,-0.21793,0.014788,-0.284537,1016.544495
932328,0.178572,1.117997,0.282621,1.447189184,-0.036405,0.120250408,-0.218372,0.000751,-0.262706,1016.544495
932428,0.167976,1.103786,0.307671,1.47148898,0.006315,-0.002748367,-0.231833,-0.014745,-0.237457,1016.544495
932528,0.171036,0.868013,0.297316,1.422101224,0.085426429,-0.173859898,-0.248706,-0.029992,-0.216207,1016.544495
932628,0.132115,0.460656,0.241723,1.311459286,0.166209592,-0.305342857,-0.276427,-0.044777,-0.200958,1016.546204
932728,0.058599,0.059804,0.1457,1.196139592,0.175103163,-0.339394082,-0.30354,-0.055817,-0.19103,1016.546204
932828,0.009384,-0.244836,0.045368,1.077062245,0.101909388,-0.300284082,-0.3285,-0.060026,-0.188767,1016.546204
932928,-0.040139,-0.501251,-0.004315,0.958066122,0.031807143,-0.277995612,-0.348413,-0.063149,-0.189951,1016.546204
933028,-0.112901,-0.69895,-0.006271,0.894414796,-0.036585102,-0.204402551,-0.359893,-0.066005,-0.189107,1016.546204
933128,-0.0882,-0.755963,0.000317,0.908132245,-0.123635714,-0.072072653,-0.366781,-0.064183,-0.193532,1016.546204
933228,0.075103,-0.630812,0.009037,0.989584796,-0.180141633,0.042562551,-0.366206,-0.063002,-0.197479,1016.546204
933328,0.286524,-0.364245,0.02544,1.112336939,-0.18550398,0.110919082,-0.37213,-0.064257,-0.200556,1016.546204
933428,0.416735,-0.112809,0.045835,1.172358673,-0.147241735,0.103313163,-0.372689,-0.066885,-0.197684,1016.546204
933528,0.462617,0.032895,0.066037,1.180812653,-0.078922143,0.070167959,-0.374142,-0.06973,-0.200336,1016.546204
933628,0.44988,0.10639,0.066465,1.152750102,0.016362041,0.050886531,-0.380691,-0.069322,-0.196314,1016.546204
933728,0.388371,0.127565,0.041966,1.099368469,0.105195306,0.027852755,-0.392583,-0.070458,-0.199893,1016.546204
933828,0.27776,0.076585,-0.004863,1.031396531,0.169279796,0.012793061,-0.405009,-0.070189,-0.201396,1016.546204
933928,0.151636,-0.032816,-0.056889,0.958770816,0.198771735,0.023557653,-0.412894,-0.064389,-0.205117,1016.546204
934028,0.065202,-0.123999,-0.105037,0.887740306,0.212656327,0.059200918,-0.4192,-0.0574,-0.213286,1016.546204
934128,0.006763,-0.154737,-0.146256,0.825114388,0.210245306,0.076031633,-0.420054,-0.05057,-0.219954,1016.546204
934228,-0.050485,-0.150785,-0.17357,0.772052755,0.185090816,0.065980816,-0.416437,-0.039873,-0.225416,1016.547974
934328,-0.124455,-0.135266,-0.17924,0.740001327,0.136716939,0.064228571,-0.411751,-0.029996,-0.234928,1016.547974
934428,-0.197596,-0.118458,-0.165312,0.724981327,0.085117653,0.07342602,-0.409085,-0.014704,-0.242162,1016.547974
934528,-0.253759,-0.118207,-0.13866,0.709087143,0.039554898,0.078572245,-0.401433,-0.002455,-0.250047,1016.547974
934628,-0.278872,-0.143781,-0.107932,0.713955306,0.001184694,0.083258265,-0.39473,0.010926,-0.26038,1016.547974
934728,-0.260449,-0.175107,-0.083402,0.739351122,-0.028901735,0.093928776,-0.387568,0.023206,-0.268765,1016.547974
934828,-0.213709,-0.189356,-0.064518,0.774398878,-0.039561122,0.102363673,-0.383846,0.035662,-0.279649,1016.547974
934928,-0.171294,-0.170198,-0.060787,0.799177755,-0.038832347,0.105520918,-0.380691,0.045466,-0.287163,1016.547974
935028,-0.155718,-0.127361,-0.06345,0.80184551,-0.03426051,0.102904694,-0.377521,0.058782,-0.294998,1016.547974
935128,-0.180755,-0.081994,-0.063591,0.802604592,-0.030435,0.096537449,-0.377287,0.070297,-0.305935,1016.547974
935228,-0.232591,-0.04871,-0.051225,0.805062857,-0.025640204,0.092304796,-0.374626,0.083099,-0.313296,1016.547974
935328,-0.288506,-0.045621,-0.027836,0.803882143,-0.020326633,0.087707857,-0.373469,0.094903,-0.320208,1016.547974
935428,-0.319385,-0.085283,-0.003145,0.810535816,-0.014372857,0.084020816,-0.369783,0.102803,-0.329822,1016.547974
935528,-0.321583,-0.148277,0.016004,0.82911551,-0.015100816,0.088512143,-0.368087,0.117188,-0.338607,1016.547974
935628,-0.309381,-0.21584,0.030992,0.848483265,-0.021145816,0.098892143,-0.364933,0.126992,-0.34612,1016.547974
935728,-0.29488,-0.289303,0.043401,0.86449602,-0.029622959,0.114953673,-0.366252,0.136891,-0.354135,1016.547974
935828,-0.279961,-0.335702,0.056332,0.879456735,-0.041002347,0.134762245,-0.364599,0.142733,-0.361851,1016.547974
935928,-0.263435,-0.335109,0.06667,0.89249449,-0.060369592,0.162281429,-0.365957,0.15154,-0.367918,1016.547974
936028,-0.243134,-0.288022,0.075966,0.894866429,-0.088176939,0.186117959,-0.365808,0.157382,-0.375135,1016.547974
936128,-0.216588,-0.225074,0.085012,0.886471939,-0.107103265,0.206056939,-0.366191,0.16463,-0.380277,1016.547974
936228,-0.191777,-0.171251,0.090318,0.876632959,-0.109615714,0.227562551,-0.364029,0.171484,-0.388443,1016.547974
936328,-0.157687,-0.127912,0.080912,0.871151224,-0.100992449,0.244190204,-0.361935,0.176178,-0.393212,1016.547974
936428,-0.121419,-0.095561,0.066917,0.88066051,-0.090133061,0.248464694,-0.357311,0.182921,-0.399878,1016.547974
936528,-0.08073,-0.046445,0.057082,0.90552051,-0.080319898,0.237128061,-0.354188,0.190161,-0.406018,1016.547974
936628,-0.03699,0.024086,0.049837,0.925294898,-0.066430408,0.209121122,-0.348033,0.195981,-0.414734,1016.547974
936728,0.008745,0.08169,0.038505,0.932707959,-0.060293776,0.185147653,-0.342824,0.199469,-0.426575,1016.547974
936828,0.062,0.110199,0.017222,0.939623878,-0.061076633,0.178730816,-0.338287,0.203505,-0.428869,1016.547974
936928,0.106957,0.10621,-0.00372,0.963292041,-0.060672449,0.182119898,-0.332591,0.210424,-0.439533,1016.547974
937028,0.130413,0.102979,-0.020393,0.995591837,-0.055890102,0.192886122,-0.326506,0.213583,-0.444877,1016.547974
937128,0.147513,0.095093,-0.035033,1.028716735,-0.050898265,0.183750918,-0.32337,0.217883,-0.452169,1016.547974
937228,0.18227,0.075678,-0.043979,1.062461429,-0.052880204,0.172409286,-0.320733,0.217233,-0.460217,1016.547974
937328,0.241973,0.053505,-0.057887,1.100973673,-0.060914184,0.176159184,-0.313691,0.224242,-0.462858,1016.547974
937428,0.326905,0.065522,-0.079753,1.148448061,-0.089307755,0.19950102,-0.311583,0.221534,-0.469507,1016.547974
937528,0.389964,0.133735,-0.090886,1.206905204,-0.110061837,0.232509796,-0.307002,0.219237,-0.475131,1016.545593
937628,0.38889,0.225911,-0.088978,1.263565612,-0.091247143,0.293546837,-0.300429,0.216409,-0.480778,1016.545593
937728,0.320485,0.309429,-0.078312,1.309455204,-0.035041531,0.373206633,-0.292458,0.211823,-0.481505,1016.545593
937828,0.212324,0.391713,-0.069156,1.355658265,0.039012551,0.466435816,-0.283039,0.206594,-0.479756,1016.545593
937928,0.110742,0.514509,-0.069572,1.400721429,0.126491531,0.526922653,-0.267658,0.198755,-0.477634,1016.545593
938028,0.006861,0.709952,-0.089846,1.443226122,0.206181837,0.524639592,-0.249833,0.190258,-0.473036,1016.545593
938128,-0.050056,0.901524,-0.137484,1.451786327,0.229657245,0.418876429,-0.226621,0.181433,-0.46344,1016.545593
938228,-0.046944,1.029411,-0.197354,1.484146224,0.227832653,0.281562449,-0.216037,0.168885,-0.445028,1016.545593
938328,-0.028072,1.113441,-0.237794,1.548888061,0.190466735,0.135460102,-0.207012,0.150735,-0.423897,1016.545593
938428,0.045727,1.027856,-0.241287,1.536429898,0.109075204,-0.03646551,-0.212,0.132638,-0.399272,1016.545593
938528,0.133001,0.768846,-0.207588,1.402090306,0.023432449,-0.204044286,-0.228993,0.112618,-0.372254,1016.545593
938628,0.143524,0.45958,-0.156608,1.211358061,-0.030297449,-0.276956429,-0.249327,0.091045,-0.353335,1016.545593
938728,0.113107,0.139014,-0.099302,1.040894796,-0.041885816,-0.252073163,-0.269088,0.070654,-0.338363,1016.545593
938828,0.086312,-0.137366,-0.056765,0.910975,-0.009829898,-0.172558367,-0.288778,0.058378,-0.325984,1016.545593
938928,0.089884,-0.310486,-0.051948,0.816039184,0.056291939,-0.113341122,-0.29694,0.049079,-0.316947,1016.545593
939028,0.079867,-0.422267,-0.075659,0.755787245,0.165948673,-0.078423878,-0.297581,0.041775,-0.310306,1016.545593
939128,0.007732,-0.518333,-0.095296,0.748012551,0.277434082,-0.017549592,-0.295152,0.038601,-0.307459,1016.543884
939228,-0.123844,-0.529677,-0.090126,0.84101102,0.333999898,0.049185204,-0.287212,0.036908,-0.306033,1016.543884
939328,-0.246701,-0.422108,-0.033753,0.995738163,0.328570714,0.086212857,-0.277206,0.040832,-0.307826,1016.543884
939428,-0.320001,-0.260256,0.035804,1.091316633,0.311458163,0.058890102,-0.270668,0.049818,-0.309866,1016.543884
939528,-0.344277,-0.155003,0.079458,1.124669796,0.266205408,0.007571735,-0.268623,0.058352,-0.311433,1016.543884
939628,-0.367232,-0.128379,0.09205,1.119733163,0.185421837,-0.035296939,-0.271431,0.071265,-0.319295,1016.543884
939728,-0.392638,-0.150081,0.079494,1.093035408,0.09190398,-0.038758878,-0.273271,0.084089,-0.325658,1016.543884
939828,-0.406439,-0.184379,0.051344,1.045335,0.004489694,-0.035951939,-0.281106,0.097957,-0.330972,1016.543884
939928,-0.411123,-0.243625,0.028869,0.99517449,-0.054928163,-0.044706327,-0.282851,0.116977,-0.341528,1016.543884
940028,-0.37371,-0.33281,0.023905,0.953291735,-0.074280612,-0.040061837,-0.286691,0.125847,-0.348095,1016.543884
940128,-0.270715,-0.425655,0.022906,0.918757143,-0.06371051,-0.021284796,-0.291989,0.133841,-0.356712,1016.543884
940228,-0.130473,-0.489118,0.027327,0.895721327,-0.041215306,0.009420102,-0.29341,0.139016,-0.359957,1016.543884
940328,0.000244,-0.526519,0.032059,0.874808469,-0.011747857,0.045942347,-0.298316,0.144744,-0.363178,1016.543884
940428,0.087849,-0.529607,0.037797,0.859847347,0.018185102,0.094736122,-0.299206,0.147017,-0.368574,1016.543884
940528,0.126465,-0.495076,0.049747,0.845071429,0.054181837,0.139493878,-0.297144,0.144189,-0.372725,1016.543884
940628,0.103114,-0.423275,0.064762,0.826800612,0.092737959,0.166059898,-0.297102,0.147275,-0.374571,1016.543884
940728,0.043179,-0.333762,0.075918,0.804925918,0.129893878,0.163643878,-0.29503,0.150425,-0.378417,1016.545593
940828,-0.026814,-0.244456,0.082632,0.78126051,0.152478061,0.149246939,-0.28845,0.151584,-0.383862,1016.545593
940928,-0.087196,-0.15655,0.093254,0.755893673,0.157559796,0.130670102,-0.279795,0.152429,-0.39383,1016.545593
941028,-0.129289,-0.090313,0.103998,0.747125918,0.150054694,0.112132857,-0.274179,0.156167,-0.400648,1016.545593
941128,-0.149732,-0.060155,0.11796,0.760590918,0.131301939,0.090967653,-0.266105,0.16226,-0.405338,1016.545593
941228,-0.154421,-0.061286,0.129079,0.775476837,0.109677347,0.086814796,-0.260981,0.164535,-0.412732,1016.545593
941328,-0.144434,-0.067703,0.134773,0.795389082,0.087521327,0.088384388,-0.262463,0.166576,-0.413131,1016.545593
941428,-0.128069,-0.069935,0.132851,0.817890408,0.066133571,0.079796531,-0.262926,0.165186,-0.415206,1016.545593
941528,-0.105254,-0.078369,0.129759,0.834414796,0.047736327,0.074372653,-0.267445,0.1607,-0.413937,1016.545593
941628,-0.088,-0.099756,0.122437,0.852605102,0.032727245,0.074186327,-0.273986,0.160635,-0.41044,1016.545593
941728,-0.064466,-0.126595,0.11243,0.867019592,0.033418367,0.088886735,-0.279028,0.152123,-0.408375,1016.545593
941828,-0.042334,-0.158837,0.105198,0.878794082,0.047802041,0.107387143,-0.285012,0.154187,-0.407775,1016.545593
941928,-0.018185,-0.183096,0.103218,0.880165918,0.073178673,0.128008469,-0.291049,0.146688,-0.405659,1016.545593
942028,0.004202,-0.18225,0.101005,0.872349388,0.096002959,0.15043898,-0.294109,0.148037,-0.401585,1016.545593
942128,0.028647,-0.142916,0.093167,0.859812653,0.106540714,0.170617551,-0.296016,0.143826,-0.406813,1016.545593
942228,0.05195,-0.086163,0.08239,0.845992449,0.100407245,0.190034082,-0.29704,0.139309,-0.406042,1016.545593
942328,0.067328,-0.031394,0.076843,0.834755816,0.083882755,0.205062551,-0.293988,0.137936,-0.409616,1016.545593
942428,0.068185,0.0132,0.080992,0.836222449,0.066507857,0.220830612,-0.293525,0.13387,-0.408319,1016.545593
942528,0.059173,0.065381,0.095508,0.855824796,0.052502653,0.242843571,-0.289479,0.131484,-0.411944,1016.545593
942628,0.057715,0.137902,0.113675,0.879609694,0.046950102,0.248890102,-0.283036,0.128818,-0.41057,1016.545593
942728,0.062065,0.209061,0.128498,0.892564796,0.050368163,0.233265408,-0.274466,0.123492,-0.416844,1016.545593
942828,0.076887,0.258826,0.138029,0.884715612,0.058745918,0.208317245,-0.265509,0.118368,-0.417095,1016.545593
942928,0.108738,0.274361,0.144345,0.868460612,0.055868163,0.183545714,-0.251424,0.117511,-0.424639,1016.545593
943028,0.138163,0.269896,0.149353,0.87554102,0.044687347,0.166872143,-0.242353,0.113672,-0.430837,1016.545593
943128,0.140655,0.272158,0.164323,0.917925204,0.03561898,0.164013367,-0.227269,0.113796,-0.43833,1016.545593
943228,0.110257,0.285529,0.19286,0.976442347,0.045775408,0.14961449,-0.210659,0.116958,-0.447168,1016.545593
943328,0.054195,0.273066,0.227854,1.035391837,0.087925714,0.12027602,-0.198988,0.11733,-0.45866,1016.545593
943428,-0.022248,0.222761,0.24426,1.103330714,0.164361735,0.107136122,-0.1863,0.11923,-0.471076,1016.545593
943528,-0.097673,0.183336,0.242625,1.160448673,0.238518571,0.124297041,-0.181229,0.122356,-0.47542,1016.545593
943628,-0.161998,0.172613,0.218441,1.195467041,0.267890918,0.185542143,-0.177673,0.124961,-0.47879,1016.545593
943728,-0.18411,0.212505,0.181987,1.228703469,0.229722245,0.285020714,-0.173591,0.127131,-0.483685,1016.545593
943828,-0.117764,0.292687,0.142342,1.298346429,0.156950306,0.406111633,-0.172616,0.130531,-0.482008,1016.547302
943928,0.013325,0.445772,0.109926,1.426319796,0.096211122,0.48325551,-0.162693,0.12928,-0.480057,1016.547302
944028,0.141436,0.668481,0.067055,1.550214286,-0.013173673,0.47772398,-0.159318,0.128936,-0.474058,1016.547302
944128,0.254352,0.870937,0.070166,1.577352449,-0.120138673,0.40422,-0.148095,0.122197,-0.462364,1016.547302
944228,0.315956,1.014955,0.108143,1.537457143,-0.171387041,0.290189694,-0.142013,0.11463,-0.4422,1016.547302
944328,0.302235,1.095168,0.16361,1.518655918,-0.164193673,0.175418571,-0.137461,0.097572,-0.42152,1016.547302
944428,0.261177,1.004955,0.214845,1.478476224,-0.099284592,0.051692041,-0.143501,0.079347,-0.393896,1016.547302
944528,0.200796,0.707149,0.212382,1.352787551,0.006695714,-0.07532602,-0.153529,0.059191,-0.366376,1016.547302
944628,0.140547,0.326721,0.138648,1.215867449,0.093855714,-0.166494082,-0.173924,0.040439,-0.343806,1016.547302
944728,0.115141,-0.033932,0.036163,1.111350612,0.109804286,-0.203021429,-0.194796,0.02274,-0.322185,1016.547302
944828,0.103124,-0.290692,-0.046107,1.023208265,0.072931939,-0.189306429,-0.219579,0.010255,-0.303809,1016.547302
944928,0.072584,-0.496112,-0.090534,0.925828776,0.014561122,-0.19671898,-0.239681,-0.0008,-0.295878,1016.547302
945028,0.061595,-0.672312,-0.111976,0.861191429,-0.064399796,-0.167995102,-0.257349,-0.012537,-0.284972,1016.547302
945128,0.136206,-0.743048,-0.125055,0.864794898,-0.154048469,-0.086590714,-0.267445,-0.019168,-0.278808,1016.547302
945228,0.28408,-0.651908,-0.129844,0.93302398,-0.22868898,0.024471735,-0.275964,-0.027102,-0.277217,1016.547302
945328,0.429203,-0.450405,-0.12627,1.01031898,-0.25926551,0.090292959,-0.279581,-0.037798,-0.271754,1016.547302
945428,0.51729,-0.26589,-0.105078,1.06450898,-0.225673367,0.097011122,-0.286181,-0.04496,-0.266114,1016.547302
945528,0.5211,-0.171196,-0.072613,1.082924796,-0.138724286,0.088008776,-0.288748,-0.056524,-0.2637,1016.549011
945628,0.478272,-0.143264,-0.053013,1.074834592,-0.031782755,0.085090102,-0.29834,-0.066129,-0.258188,1016.549011
945728,0.409167,-0.124991,-0.054586,1.050288673,0.064171735,0.079991837,-0.304931,-0.073765,-0.253074,1016.549011
945828,0.325181,-0.101271,-0.082982,1.004137245,0.134768469,0.074301224,-0.311556,-0.079006,-0.245833,1016.549011
945928,0.232259,-0.080244,-0.13032,0.932471224,0.170722857,0.060274082,-0.320496,-0.080286,-0.247411,1016.549011
946028,0.150641,-0.097568,-0.190909,0.860811327,0.17565551,0.035119082,-0.328038,-0.083325,-0.244067,1016.549011
946128,0.082914,-0.158366,-0.243308,0.803999694,0.145817347,0.018155204,-0.331464,-0.080136,-0.246915,1016.549011
946228,0.019092,-0.237516,-0.26911,0.769745408,0.105260816,0.027256633,-0.334859,-0.07538,-0.251185,1016.549011
946328,-0.039531,-0.308925,-0.274619,0.743981327,0.064437245,0.054610204,-0.330257,-0.070678,-0.256953,1016.549011
946428,-0.091971,-0.36041,-0.260237,0.734207143,0.028608571,0.07882102,-0.326549,-0.061235,-0.26749,1016.549011
946528,-0.127687,-0.381168,-0.232543,0.735236735,-0.00257051,0.098687857,-0.31645,-0.052112,-0.273527,1016.549011
946628,-0.143502,-0.369593,-0.198206,0.74861551,-0.026277143,0.108853469,-0.31027,-0.042757,-0.283064,1016.549011
946728,-0.144793,-0.31439,-0.170381,0.781795,-0.040618571,0.122281939,-0.303037,-0.032277,-0.295549,1016.549011
946828,-0.126012,-0.238066,-0.145976,0.815758571,-0.04544051,0.134016939,-0.297381,-0.026948,-0.30429,1016.549011
946928,-0.111689,-0.155209,-0.132818,0.843479286,-0.045164082,0.136980714,-0.291173,-0.017521,-0.315326,1016.549011
947028,-0.098681,-0.072904,-0.130195,0.854465816,-0.053366327,0.130074592,-0.287572,-0.010336,-0.320467,1016.549011
947128,-0.100786,-0.02535,-0.127225,0.851955,-0.057879082,0.118036837,-0.287446,-0.007034,-0.326813,1016.550781
947228,-0.121509,-0.025251,-0.120682,0.848134388,-0.052388163,0.098265102,-0.285823,-0.002759,-0.333106,1016.550781
947328,-0.152342,-0.064078,-0.112284,0.840494082,-0.037118673,0.083738061,-0.284244,-0.002068,-0.337579,1016.550781
947428,-0.18677,-0.136092,-0.108362,0.835692551,-0.017623571,0.076833776,-0.290095,0.00133,-0.343925,1016.550781
947528,-0.212745,-0.213698,-0.107689,0.848811224,-0.010917857,0.082918265,-0.288501,0.005533,-0.34872,1016.550781
947628,-0.220732,-0.276302,-0.102706,0.870354796,-0.018480204,0.10131051,-0.286873,0.012798,-0.354861,1016.550781
947728,-0.218663,-0.315718,-0.090601,0.888047857,-0.036957959,0.128269082,-0.285283,0.014509,-0.359782,1016.550781
947828,-0.212871,-0.334557,-0.074422,0.902463571,-0.056504184,0.156887551,-0.286691,0.021203,-0.363451,1016.550781
947928,-0.206102,-0.342838,-0.053069,0.903637347,-0.076950918,0.18563102,-0.286556,0.024031,-0.370322,1016.550781
948028,-0.207103,-0.336531,-0.041016,0.901718469,-0.088422755,0.203190102,-0.286971,0.029214,-0.374066,1016.550781
948128,-0.210364,-0.321584,-0.038259,0.889984796,-0.094491224,0.213089898,-0.282907,0.031834,-0.377936,1016.550781
948228,-0.211091,-0.29721,-0.049225,0.87385602,-0.096135408,0.214155612,-0.281857,0.035924,-0.380232,1016.550781
948328,-0.195624,-0.244463,-0.072204,0.854687041,-0.08870051,0.218527653,-0.278249,0.036681,-0.386703,1016.550781
948428,-0.161956,-0.16804,-0.101453,0.83915,-0.075794592,0.216308163,-0.27514,0.036448,-0.393224,1016.550781
948528,-0.116834,-0.08097,-0.133057,0.843200408,-0.064164388,0.200953367,-0.265147,0.037857,-0.394645,1016.550781
948628,-0.07361,-0.013701,-0.161393,0.869442857,-0.056975,0.188095408,-0.258492,0.039208,-0.404088,1016.550781
948728,-0.046267,0.02285,-0.176712,0.907286837,-0.050654184,0.186687245,-0.25091,0.03888,-0.410109,1016.550781
948828,-0.036813,0.029592,-0.177033,0.951026735,-0.048276122,0.185233367,-0.243863,0.037966,-0.414156,1016.550781
948928,-0.036108,0.015155,-0.169221,0.985951939,-0.042613878,0.178270204,-0.23732,0.03407,-0.418356,1016.550781
949028,-0.038655,0.00273,-0.167908,1.013501429,-0.035239592,0.15986898,-0.230789,0.034112,-0.421353,1016.550781
949128,-0.032105,0.010425,-0.183756,1.028942449,-0.03556898,0.131103878,-0.227261,0.031188,-0.424003,1016.550781
949228,0.012023,0.048924,-0.216944,1.049647245,-0.043111633,0.113837245,-0.223724,0.027789,-0.427178,1016.550781
949328,0.092528,0.11587,-0.264141,1.090118163,-0.05856898,0.105271939,-0.21672,0.024287,-0.429353,1016.550781
949428,0.190756,0.173927,-0.301329,1.154882449,-0.072781837,0.110865408,-0.209207,0.0213,-0.432002,1016.550781
949528,0.249133,0.198954,-0.297475,1.242515816,-0.05721449,0.155268469,-0.198758,0.014657,-0.432329,1016.550781
949628,0.218257,0.231951,-0.255092,1.357199082,-0.016363673,0.276888571,-0.191778,0.007121,-0.433708,1016.550781
949728,0.13196,0.289062,-0.197923,1.481496735,0.040695306,0.413995408,-0.181428,-0.002753,-0.429189,1016.550781
949828,0.015342,0.383393,-0.132561,1.592157143,0.113426531,0.496247653,-0.170647,-0.014297,-0.421248,1016.550781
949928,-0.118058,0.549813,-0.092644,1.658642755,0.197962347,0.471586429,-0.156431,-0.029006,-0.410959,1016.550781
950028,-0.200649,0.728764,-0.101071,1.647978469,0.245044082,0.328261633,-0.146316,-0.045934,-0.394776,1016.550781
950128,-0.207479,0.813246,-0.130313,1.592928673,0.228190102,0.116545612,-0.141792,-0.063563,-0.372621,1016.550781
950228,-0.161873,0.756076,-0.164991,1.474262551,0.153606837,-0.059155612,-0.14985,-0.080334,-0.343423,1016.550781
950328,-0.073797,0.558875,-0.155821,1.314171633,0.063740102,-0.200942143,-0.158414,-0.096624,-0.313699,1016.548523
950428,0.021107,0.255055,-0.10778,1.165621837,0.003355612,-0.283628061,-0.177751,-0.112258,-0.293975,1016.548523
950528,0.075023,-0.064928,-0.056655,1.036520612,0.01669551,-0.270221633,-0.197115,-0.127465,-0.272727,1016.548523
950628,0.071998,-0.321237,-0.045091,0.934545612,0.079653571,-0.184777857,-0.208358,-0.135962,-0.258642,1016.548523
950728,0.049863,-0.500025,-0.055354,0.876547755,0.119040204,-0.074421531,-0.218106,-0.14944,-0.245311,1016.548523
950828,0.019355,-0.569255,-0.047419,0.858561122,0.154466224,0.014426531,-0.226288,-0.159285,-0.2353,1016.548523
950928,-0.054725,-0.543213,-0.025272,0.885854286,0.212831531,0.083932143,-0.223448,-0.164676,-0.228056,1016.548523
951028,-0.188054,-0.399426,0.033474,0.936289184,0.268789286,0.12436449,-0.218133,-0.16866,-0.219736,1016.548523
951128,-0.324802,-0.17522,0.119861,0.964820102,0.314070612,0.091112041,-0.210228,-0.173913,-0.216989,1016.548523
951228,-0.404901,0.015355,0.207493,0.955068367,0.333402653,0.022920204,-0.203231,-0.176941,-0.218638,1016.548523
951328,-0.425159,0.069996,0.242421,0.977972143,0.333300714,-0.061830714,-0.198702,-0.171934,-0.220382,1016.548523
951428,-0.417362,0.006487,0.245466,1.015792449,0.274489898,-0.099749388,-0.197613,-0.166252,-0.2246,1016.548523
951528,-0.412126,-0.076237,0.220298,1.052543265,0.188132653,-0.066845306,-0.200047,-0.155653,-0.226067,1016.548523
951628,-0.362913,-0.114964,0.171114,1.063547551,0.07861551,-0.018771122,-0.210478,-0.149461,-0.226765,1016.548523
951728,-0.285441,-0.125562,0.114002,1.043312245,-0.018057551,-0.006947245,-0.220835,-0.137619,-0.230682,1016.548523
951828,-0.212657,-0.146094,0.078482,1.012308571,-0.071510408,-0.025141837,-0.231324,-0.132567,-0.228432,1016.548523
951928,-0.150952,-0.20426,0.074,0.960737653,-0.075139898,-0.044203776,-0.241812,-0.127017,-0.226157,1016.548523
952028,-0.078439,-0.29102,0.080664,0.906542449,-0.049559286,-0.03096449,-0.253289,-0.122921,-0.224458,1016.548523
952128,-0.010679,-0.361323,0.090238,0.867814592,-0.010960204,0.007104082,-0.256269,-0.117892,-0.224205,1016.548523
952228,0.036219,-0.409315,0.10324,0.843033673,0.032799388,0.049724082,-0.261857,-0.116101,-0.218107,1016.548523
952328,0.051461,-0.410972,0.112328,0.826058061,0.065281122,0.081137653,-0.263264,-0.113867,-0.222504,1016.548523
952428,0.047848,-0.374063,0.126827,0.81428949,0.08717398,0.094180204,-0.261242,-0.11283,-0.223952,1016.548523
952528,0.021116,-0.325938,0.148038,0.798378673,0.103433367,0.097868469,-0.256767,-0.107469,-0.222672,1016.548523
952628,-0.018325,-0.269545,0.169026,0.781182959,0.124059082,0.097830714,-0.250737,-0.108914,-0.225745,1016.548523
952728,-0.059572,-0.20729,0.175856,0.770797755,0.143781633,0.103267143,-0.246204,-0.106872,-0.228141,1016.548523
952828,-0.087623,-0.137084,0.177732,0.775466429,0.148403061,0.103463061,-0.241649,-0.103287,-0.23146,1016.548523
952928,-0.10716,-0.082335,0.173106,0.783835306,0.140013061,0.090411327,-0.231077,-0.098206,-0.236701,1016.548523
953028,-0.114904,-0.052679,0.1705,0.79593449,0.118894592,0.076081735,-0.228027,-0.094621,-0.239521,1016.548523
953128,-0.100715,-0.038154,0.165962,0.810017857,0.090171327,0.064231327,-0.22144,-0.089477,-0.244763,1016.548523
953228,-0.074017,-0.024501,0.161539,0.822187347,0.059825816,0.056854388,-0.21684,-0.086269,-0.250607,1016.548523
953328,-0.048061,-0.016335,0.160909,0.841020408,0.04258602,0.053014082,-0.213267,-0.079655,-0.254274,1016.548523
953428,-0.021115,-0.022023,0.164157,0.859222143,0.032547653,0.061901939,-0.213669,-0.077911,-0.259196,1016.548523
953528,-0.002706,-0.039865,0.168488,0.874912449,0.035846327,0.079348469,-0.211079,-0.073725,-0.26399,1016.548523
953628,0.018892,-0.065858,0.166385,0.890492551,0.051338061,0.104624898,-0.212564,-0.074175,-0.264515,1016.548523
953728,0.046946,-0.098969,0.153036,0.893594082,0.073875714,0.129412857,-0.210451,-0.068935,-0.270258,1016.548523
953828,0.078337,-0.120211,0.13179,0.886835612,0.098669286,0.154143061,-0.214445,-0.068398,-0.269734,1016.548523
953928,0.112071,-0.111324,0.104518,0.867994082,0.112700612,0.169393163,-0.214947,-0.070881,-0.269861,1016.548523
954028,0.148894,-0.07413,0.075937,0.836651531,0.114804082,0.182144796,-0.212398,-0.069281,-0.272783,1016.548523
954128,0.179179,-0.033446,0.053081,0.802942755,0.105546531,0.193014898,-0.213385,-0.069242,-0.273283,1016.548523
954228,0.195164,0.01009,0.035256,0.792735918,0.092128265,0.196989694,-0.205829,-0.069143,-0.277779,1016.548523
954328,0.187408,0.06213,0.035501,0.815039388,0.078786224,0.205573367,-0.201276,-0.071015,-0.281878,1016.548523
954428,0.176273,0.131243,0.04913,0.854301122,0.07225,0.212933367,-0.19175,-0.072989,-0.285475,1016.548523
954528,0.165836,0.197141,0.071591,0.889659694,0.079480612,0.204498367,-0.184154,-0.0713,-0.291894,1016.548523
954628,0.159508,0.24713,0.09454,0.922380204,0.095931429,0.200752143,-0.177141,-0.075276,-0.294594,1016.548523
954728,0.164236,0.282218,0.112634,0.946036633,0.11199102,0.199329898,-0.165103,-0.075747,-0.299114,1016.548523
954828,0.165429,0.30339,0.128284,0.959965306,0.124737653,0.190709082,-0.152567,-0.076226,-0.303634,1016.548523
954928,0.16736,0.323124,0.138203,0.984032653,0.134779286,0.181787041,-0.146017,-0.081095,-0.308384,1016.548523
955028,0.156675,0.355997,0.142946,1.008087755,0.136993163,0.160594184,-0.139993,-0.081069,-0.310882,1016.548523
955128,0.115665,0.360632,0.14433,1.038217959,0.147449388,0.128867449,-0.134427,-0.079445,-0.315302,1016.548523
955228,0.056816,0.313864,0.141514,1.068748673,0.165367449,0.110581939,-0.127431,-0.077514,-0.316198,1016.548523
955328,-0.020184,0.239512,0.116862,1.101489796,0.189918673,0.137801939,-0.124843,-0.074822,-0.321068,1016.548523
955428,-0.092066,0.201489,0.096048,1.10833,0.202048061,0.197666735,-0.11979,-0.071244,-0.324387,1016.548523
955528,-0.134999,0.244799,0.083219,1.127578469,0.20689949,0.285891633,-0.112259,-0.069226,-0.327282,1016.548523
955628,-0.1283,0.375937,0.077478,1.167695816,0.179053571,0.366611939,-0.10562,-0.060473,-0.334845,1016.548523
955728,-0.056651,0.558185,0.098677,1.253752041,0.137965,0.405821224,-0.092585,-0.055504,-0.338586,1016.548523
955828,0.021623,0.773092,0.104592,1.387746122,0.053879286,0.395543367,-0.077155,-0.051811,-0.337378,1016.548523
955928,0.131625,0.963407,0.135482,1.498865714,-0.058127449,0.332371837,-0.063285,-0.05372,-0.333452,1016.548523
956028,0.24786,1.037552,0.183115,1.59189398,-0.115315816,0.213209592,-0.055057,-0.058442,-0.321157,1016.548523
956128,0.318556,0.907972,0.23312,1.644851531,-0.12014551,0.059523776,-0.054918,-0.067313,-0.30307,1016.548523
956228,0.292317,0.604949,0.238309,1.601693469,-0.065003469,-0.089499592,-0.064767,-0.075599,-0.283462,1016.548523
956328,0.176741,0.285939,0.175207,1.461457041,0.020164796,-0.205052653,-0.086065,-0.08368,-0.264357,1016.548523
956428,0.027399,-0.028585,0.083703,1.315433061,0.043995918,-0.266996633,-0.114348,-0.093169,-0.244831,1016.548523
956528,-0.046708,-0.319145,0.002413,1.176126633,0.026593878,-0.267195,-0.142488,-0.095345,-0.231946,1016.548523
956628,-0.081754,-0.564794,-0.043206,1.050932449,0.015548061,-0.237358061,-0.168004,-0.095231,-0.225957,1016.548523
956728,-0.085633,-0.742872,-0.057946,0.961506429,-0.027273673,-0.19606051,-0.190517,-0.092649,-0.220339,1016.548523
956828,0.008637,-0.862227,-0.063416,0.929984082,-0.111070102,-0.127615612,-0.206485,-0.092469,-0.218844,1016.548523
956928,0.189949,-0.839356,-0.067491,0.965256939,-0.192067449,-0.017648571,-0.214433,-0.090301,-0.219745,1016.548523
957028,0.392992,-0.632753,-0.066463,1.032087959,-0.235957143,0.080235714,-0.214964,-0.088397,-0.217644,1016.548523
957128,0.555769,-0.325058,-0.060168,1.078152041,-0.218003265,0.124657347,-0.215538,-0.094038,-0.214425,1016.548523
957228,0.638508,-0.076791,-0.048039,1.080816735,-0.153987959,0.097432347,-0.210153,-0.095362,-0.209476,1016.548523
957328,0.642537,0.031757,-0.034342,1.060600102,-0.077058776,0.057657245,-0.208681,-0.102883,-0.209357,1016.548523
957428,0.59999,0.034802,-0.026633,1.043261735,0.000933061,0.031887041,-0.209868,-0.110799,-0.200242,1016.548523
957528,0.513631,0.019371,-0.031481,1.019297143,0.071163878,0.022816735,-0.209941,-0.115451,-0.196972,1016.548523
957628,0.409621,-0.00188,-0.048029,0.973255102,0.129975816,0.017861224,-0.2125,-0.117573,-0.193576,1016.548523
957728,0.296933,-0.022434,-0.081316,0.914666429,0.17086051,0.007848878,-0.216499,-0.120025,-0.193204,1016.548523
957828,0.197269,-0.058543,-0.126307,0.853451224,0.184821837,0.003817143,-0.219435,-0.11637,-0.195526,1016.548523
957928,0.098305,-0.11196,-0.164858,0.805121122,0.176535408,0.007554898,-0.220851,-0.108704,-0.198644,1016.548523
958028,0.011345,-0.168051,-0.191459,0.768372653,0.15655102,0.015315204,-0.221291,-0.102099,-0.200813,1016.548523
958128,-0.06342,-0.215885,-0.208582,0.746970102,0.125355612,0.030882041,-0.217646,-0.09133,-0.207776,1016.548523
958228,-0.115081,-0.236596,-0.211104,0.739771837,0.087849388,0.050963673,-0.217439,-0.079389,-0.217188,1016.548523
958328,-0.14032,-0.229473,-0.203924,0.745951122,0.048679184,0.069531531,-0.214751,-0.067512,-0.226099,1016.548523
958428,-0.138594,-0.199566,-0.192567,0.76146051,0.009250714,0.090492551,-0.214547,-0.057065,-0.235587,1016.548523
958528,-0.119299,-0.155238,-0.183914,0.777227857,-0.023894388,0.102017857,-0.215396,-0.046748,-0.242076,1016.548523
958628,-0.091628,-0.107962,-0.176942,0.786385918,-0.045139286,0.106318163,-0.214711,-0.03586,-0.250539,1016.548523
958728,-0.066486,-0.077683,-0.172738,0.795256327,-0.054713571,0.103137959,-0.213627,-0.027711,-0.254131,1016.548523
958828,-0.054731,-0.053392,-0.173638,0.792064592,-0.056141735,0.097565408,-0.213499,-0.018454,-0.259671,1016.548523
958928,-0.054377,-0.029493,-0.164119,0.794636327,-0.049401429,0.089899694,-0.213764,-0.012387,-0.271387,1016.548523
959028,-0.084151,-0.012469,-0.150789,0.799907653,-0.032915714,0.074494796,-0.209172,-0.003249,-0.275927,1016.548523
959128,-0.134341,-0.01717,-0.134553,0.803022347,-0.020284388,0.058012857,-0.208929,0.002833,-0.288142,1016.548523
959228,-0.183551,-0.053781,-0.115769,0.812150204,-0.013622959,0.043788061,-0.208277,0.011657,-0.295207,1016.548523
959328,-0.21583,-0.1024,-0.094359,0.84109602,-0.01362398,0.046808776,-0.205605,0.019524,-0.303822,1016.548523
959428,-0.22379,-0.163261,-0.074964,0.877543878,-0.024733469,0.066232551,-0.203425,0.030887,-0.312259,1016.548523
959528,-0.210658,-0.214556,-0.052351,0.908139388,-0.043009286,0.095923776,-0.205243,0.035337,-0.321053,1016.548523
959628,-0.192536,-0.257606,-0.02783,0.93129102,-0.055056429,0.125504184,-0.207099,0.04465,-0.327094,1016.548523
959728,-0.184571,-0.285835,-0.007509,0.944293878,-0.063375102,0.158248776,-0.210964,0.049487,-0.332864,1016.548523
959828,-0.178658,-0.288769,0.002727,0.945157959,-0.06788949,0.194142755,-0.213323,0.055818,-0.339057,1016.548523
959928,-0.164735,-0.263531,0.001113,0.93427949,-0.074290714,0.218986224,-0.211811,0.060302,-0.339328,1016.548523
960028,-0.146609,-0.226608,-0.010253,0.907584796,-0.072552551,0.22577102,-0.213646,0.065701,-0.347071,1016.548523
960128,-0.131029,-0.177859,-0.029084,0.878247041,-0.071186327,0.225144592,-0.216044,0.07094,-0.351316,1016.548523
960228,-0.107843,-0.104486,-0.046011,0.866245204,-0.071412143,0.221952245,-0.21091,0.07324,-0.35921,1016.548523
960328,-0.07683,-0.009069,-0.054201,0.873157551,-0.068625816,0.206437347,-0.208366,0.077306,-0.361505,1016.548523
960428,-0.056771,0.085229,-0.05599,0.889530306,-0.069912143,0.183945204,-0.204751,0.08155,-0.367798,1016.548523
960528,-0.03867,0.131701,-0.052601,0.913445,-0.065646837,0.177890102,-0.197183,0.083665,-0.372692,1016.548523
960628,-0.035845,0.113936,-0.048552,0.942890918,-0.062978571,0.186033776,-0.190593,0.084848,-0.378637,1016.548523
960728,-0.031212,0.046894,-0.041784,0.980410714,-0.056299184,0.195235306,-0.185949,0.087179,-0.387031,1016.548523
960828,-0.021413,0.001205,-0.034357,1.026713469,-0.043814796,0.18636449,-0.179372,0.091801,-0.391798,1016.548523
960928,-0.00133,0.029793,-0.038651,1.062205408,-0.043115,0.161563673,-0.17383,0.090388,-0.395371,1016.548523
961028,0.045527,0.089034,-0.05898,1.065388061,-0.054440408,0.126506735,-0.17123,0.089143,-0.401444,1016.548523
961128,0.119184,0.160399,-0.095318,1.083417857,-0.084673878,0.114873367,-0.17018,0.088275,-0.404494,1016.548523
961228,0.229825,0.226998,-0.123401,1.125924184,-0.12310551,0.117732449,-0.164719,0.083182,-0.404246,1016.548523
961328,0.310257,0.24827,-0.121485,1.189736735,-0.116835816,0.144253571,-0.159266,0.078562,-0.403473,1016.548523
961428,0.312347,0.243508,-0.104279,1.268795204,-0.078996735,0.252840408,-0.154739,0.077117,-0.406048,1016.548523
961528,0.245218,0.240103,-0.0738,1.35876449,-0.018559592,0.400127449,-0.14731,0.068456,-0.404978,1016.548523
961628,0.117477,0.30655,-0.028839,1.445627041,0.067377755,0.504034898,-0.135948,0.062079,-0.400781,1016.548523
961728,-0.023023,0.495636,-0.004026,1.521912347,0.181784388,0.512441735,-0.120034,0.052336,-0.400759,1016.548523
961828,-0.133367,0.755521,-0.027241,1.565793776,0.287198571,0.398526633,-0.106868,0.038992,-0.387395,1016.548523
961928,-0.183333,0.943524,-0.078782,1.581644388,0.321862347,0.187206531,-0.09375,0.02949,-0.370829,1016.548523
962028,-0.16133,0.920179,-0.139251,1.504575,0.274118469,-0.031567755,-0.093059,0.01976,-0.355792,1016.548523
962128,-0.101314,0.733155,-0.182062,1.400731837,0.187342347,-0.180414898,-0.09744,0.005407,-0.336487,1016.548523
962228,-0.081395,0.452139,-0.16967,1.289974694,0.079124694,-0.294608878,-0.111792,-0.002856,-0.315881,1016.548523
962328,-0.107832,0.1009,-0.127681,1.147451837,0.016367347,-0.351914592,-0.128513,-0.010767,-0.301773,1016.548523
962428,-0.152972,-0.217915,-0.090342,1.01006898,0.041257143,-0.280015612,-0.147654,-0.014983,-0.290986,1016.548523
962528,-0.166768,-0.433943,-0.088042,0.934460408,0.09220898,-0.154763163,-0.161747,-0.019109,-0.283697,1016.548523
962628,-0.148505,-0.537369,-0.092154,0.891855408,0.128857857,-0.066320306,-0.171329,-0.022237,-0.277854,1016.548523
962728,-0.153754,-0.540568,-0.078982,0.898107449,0.183018776,0.011644694,-0.175337,-0.019755,-0.276229,1016.548523
962828,-0.223505,-0.422849,-0.042793,0.941022755,0.223269388,0.075988776,-0.17734,-0.025702,-0.276535,1016.548523
962928,-0.329449,-0.219146,0.028809,0.99605051,0.235043776,0.106574286,-0.173812,-0.018211,-0.277652,1016.548523
963028,-0.411578,-0.022273,0.114743,1.012027959,0.229698265,0.054942347,-0.168754,-0.016603,-0.281573,1016.548523
963128,-0.437864,0.036117,0.155358,1.005007857,0.227750714,-0.031413571,-0.165171,-0.009466,-0.285714,1016.548523
963228,-0.420529,-0.031477,0.161436,1.023671735,0.193679694,-0.089000612,-0.163122,-0.003897,-0.287933,1016.548523
963328,-0.401798,-0.111867,0.153157,1.03329551,0.120070612,-0.087429184,-0.165504,0.005352,-0.292475,1016.550232
963428,-0.372374,-0.158086,0.131365,1.022739898,0.031376122,-0.065854592,-0.165916,0.016988,-0.295389,1016.550232
963528,-0.329453,-0.1926,0.095329,0.990436633,-0.038812755,-0.062199082,-0.172789,0.021823,-0.300161,1016.550232
963628,-0.256397,-0.237741,0.06433,0.957691837,-0.081595816,-0.057897143,-0.180707,0.030017,-0.301756,1016.550232
963728,-0.161643,-0.313477,0.049672,0.918361939,-0.084829694,-0.047508163,-0.184663,0.036107,-0.302452,1016.550232
963828,-0.065188,-0.404165,0.04589,0.887068571,-0.064704898,-0.02185551,-0.194053,0.041409,-0.3057,1016.550232
963928,0.007922,-0.470919,0.054961,0.862273469,-0.037023469,0.010359184,-0.194517,0.045474,-0.306996,1016.550232
964028,0.056111,-0.511976,0.075322,0.840895714,-0.004657755,0.045357449,-0.195936,0.045691,-0.310995,1016.550232
964128,0.07284,-0.496366,0.095913,0.819283367,0.040213163,0.087067347,-0.194901,0.046768,-0.312943,1016.550232
964228,0.064609,-0.441447,0.112779,0.797266429,0.078303061,0.099243265,-0.193869,0.04635,-0.314967,1016.550232
964328,0.051508,-0.382218,0.126997,0.77374449,0.103927551,0.095572449,-0.190856,0.04934,-0.315813,1016.550232
964428,0.044527,-0.330818,0.136355,0.760791429,0.122515408,0.082465102,-0.188302,0.048473,-0.319362,1016.550232
964528,0.039556,-0.284418,0.138389,0.759311122,0.126508776,0.070744388,-0.183805,0.050917,-0.319733,1016.550232
964628,0.044544,-0.253024,0.13511,0.763955,0.113858673,0.057002857,-0.180742,0.051062,-0.323731,1016.550232
964728,0.052132,-0.23604,0.134741,0.773003571,0.099610102,0.040800204,-0.180167,0.052243,-0.327678,1016.550232
964828,0.055338,-0.246754,0.139634,0.786745816,0.082626531,0.034056429,-0.176644,0.051786,-0.329702,1016.550232
964928,0.065121,-0.275228,0.136721,0.801801735,0.066047449,0.040544796,-0.176084,0.05541,-0.332523,1016.550232
965028,0.088252,-0.305446,0.13877,0.826392755,0.05457102,0.045421327,-0.175476,0.054695,-0.338571,1016.550232
965128,0.112696,-0.332013,0.139328,0.852894898,0.050343878,0.043971939,-0.176455,0.059219,-0.338843,1016.550232
965228,0.128804,-0.346683,0.137135,0.881523776,0.047901633,0.045260408,-0.182356,0.060503,-0.342792,1016.550232
965328,0.143901,-0.344954,0.131544,0.898925714,0.052287449,0.060024796,-0.185794,0.062173,-0.345216,1016.550232
965428,0.16118,-0.341968,0.117651,0.900660204,0.05416949,0.078737245,-0.189762,0.061288,-0.346268,1016.550232
965528,0.179642,-0.330584,0.106394,0.901847143,0.062821633,0.103220816,-0.198765,0.061832,-0.344246,1016.550232
965628,0.212647,-0.311602,0.092053,0.895186531,0.075887857,0.116041224,-0.204307,0.062747,-0.340698,1016.550232
965728,0.239612,-0.273818,0.074737,0.880347755,0.09436551,0.121687449,-0.211366,0.056686,-0.337007,1016.550232
965828,0.244078,-0.236752,0.057902,0.84793449,0.106094184,0.123377857,-0.214832,0.058285,-0.337931,1016.550232
965928,0.224204,-0.22208,0.04432,0.82598102,0.111198367,0.133673878,-0.219337,0.056314,-0.337034,1016.550232
966028,0.183276,-0.216375,0.044697,0.82127,0.115286224,0.158365714,-0.221841,0.053839,-0.336662,1016.550232
966128,0.154397,-0.201307,0.054848,0.835099694,0.110936429,0.175492653,-0.220265,0.053035,-0.341211,1016.550232
966228,0.15607,-0.157299,0.06884,0.859202857,0.105793469,0.181389796,-0.216763,0.051035,-0.342311,1016.550232
966328,0.164906,-0.078301,0.075527,0.890101633,0.097967041,0.186200714,-0.2126,0.051928,-0.351781,1016.550232
966428,0.175086,0.007773,0.083018,0.92695,0.088266122,0.181891429,-0.204543,0.048555,-0.356954,1016.550232
966528,0.180591,0.082093,0.084298,0.967144388,0.086503673,0.175160408,-0.200983,0.048194,-0.360977,1016.546204
966628,0.180159,0.131193,0.078894,0.992933061,0.094851837,0.155824898,-0.193422,0.045825,-0.3661,1016.546204
966728,0.168507,0.157534,0.076067,1.00145102,0.10033398,0.135559082,-0.186847,0.044492,-0.371672,1016.546204
966828,0.148979,0.168729,0.083734,1.001147347,0.101365,0.118221122,-0.183349,0.040499,-0.372874,1016.546204
966928,0.115065,0.164049,0.095061,1.015839286,0.102652857,0.096032551,-0.17877,0.042164,-0.377794,1016.546204
967028,0.059328,0.144923,0.11569,1.048219286,0.109198878,0.070546633,-0.176224,0.04177,-0.380817,1016.546204
967128,-0.020498,0.095968,0.138524,1.094612653,0.144817449,0.050223571,-0.178666,0.042927,-0.383266,1016.546204
967228,-0.110325,0.028007,0.151509,1.149835408,0.205817245,0.067542959,-0.181064,0.048166,-0.387511,1016.546204
967328,-0.17861,0.007671,0.14909,1.181895204,0.244768061,0.134955816,-0.182034,0.047257,-0.389062,1016.546204
967428,-0.222747,0.05163,0.123206,1.188062347,0.239249898,0.228577449,-0.181938,0.054449,-0.393205,1016.546204
967528,-0.211531,0.161703,0.073714,1.211140612,0.193553776,0.34534,-0.182728,0.060949,-0.403396,1016.546204
967628,-0.124949,0.338953,0.022167,1.267995714,0.139722755,0.433097959,-0.176179,0.065998,-0.406639,1016.546204
967728,0.015177,0.567723,-0.009679,1.369510816,0.054199388,0.442253571,-0.16671,0.068339,-0.406508,1016.546204
967828,0.146461,0.780852,-0.005725,1.464655306,-0.05137,0.353600306,-0.154261,0.066148,-0.406606,1016.546204
967928,0.214745,0.909323,0.037693,1.495806429,-0.124864796,0.191573878,-0.141911,0.065187,-0.40113,1016.546204
968028,0.21596,0.915837,0.08239,1.506694592,-0.15307051,0.04984,-0.132752,0.049866,-0.38687,1016.546204
968128,0.162563,0.850811,0.158669,1.511400918,-0.143912551,-0.069745612,-0.128048,0.039646,-0.373356,1016.546204
968228,0.029573,0.719128,0.209941,1.473278367,-0.083516122,-0.196105714,-0.134853,0.031457,-0.356746,1016.546204
968328,-0.064852,0.472928,0.249096,1.370088469,0.032889286,-0.288736531,-0.143664,0.021282,-0.339738,1016.546204
968428,-0.09895,0.208815,0.202092,1.221230816,0.141749184,-0.327060612,-0.160861,0.010462,-0.327282,1016.546204
968528,-0.092353,-0.010486,0.060792,1.09475949,0.154878265,-0.323901224,-0.178968,0.011285,-0.31774,1016.546204
968628,-0.064487,-0.219129,-0.055319,0.989910918,0.103649388,-0.314888265,-0.193511,0.014239,-0.312095,1016.546204
968728,-0.051786,-0.42064,-0.11671,0.931456122,0.028215204,-0.272459796,-0.207468,0.014436,-0.311599,1016.546204
968828,0.050493,-0.553552,-0.143221,0.934529592,-0.07026449,-0.180651224,-0.215863,0.019223,-0.314872,1016.546204
968928,0.256736,-0.522825,-0.163707,0.987591122,-0.170586939,-0.06677898,-0.217286,0.022903,-0.318193,1016.546204
969028,0.478135,-0.333717,-0.17688,1.054726633,-0.263371633,-0.000368878,-0.216769,0.022943,-0.319192,1016.546204
969128,0.616104,-0.110893,-0.162817,1.095686633,-0.30609602,-0.005759388,-0.217196,0.021151,-0.323292,1016.546204
969228,0.640093,-0.028821,-0.116236,1.094756224,-0.263817857,-0.063149694,-0.213763,0.016491,-0.321021,1016.546204
969328,0.601698,-0.072276,-0.058593,1.079441224,-0.144770612,-0.072135,-0.211334,0.008359,-0.318928,1016.546204
969428,0.541266,-0.112147,-0.0203,1.074388776,-0.020594592,-0.032563469,-0.2149,0.000275,-0.315837,1016.546204
969528,0.447002,-0.096541,0.000816,1.061720816,0.095408776,-0.000727551,-0.217524,-0.006974,-0.309696,1016.546204
969628,0.325235,-0.047458,0.006871,1.013313163,0.185150102,0.006716837,-0.223525,-0.009917,-0.30885,1016.546204
969728,0.200313,-0.016517,-0.013717,0.941676122,0.242058878,-0.006287347,-0.231552,-0.010433,-0.30588,1016.546204
969828,0.095238,-0.016186,-0.067398,0.876369898,0.25343551,-0.015866327,-0.234464,-0.009197,-0.309828,1016.546204
969928,0.016685,-0.052334,-0.126759,0.824952347,0.2237,-0.010937857,-0.244358,-0.001919,-0.312474,1016.546204
970028,-0.050989,-0.085326,-0.169605,0.798139796,0.179299184,0.019289388,-0.249733,0.004886,-0.317144,1016.546204
970128,-0.129311,-0.091527,-0.191988,0.786485918,0.134570102,0.050359082,-0.252066,0.010293,-0.324887,1016.546204
970228,-0.198739,-0.091378,-0.192066,0.772014388,0.077818265,0.067638163,-0.254413,0.023101,-0.33075,1016.546204
970328,-0.23315,-0.102886,-0.177625,0.760627143,0.025998265,0.071364796,-0.260247,0.031007,-0.337368,1016.546204
970428,-0.236495,-0.104469,-0.153216,0.76191102,-0.015154388,0.073816429,-0.262068,0.038921,-0.345485,1016.546204
970528,-0.22671,-0.086619,-0.130275,0.764812551,-0.041007245,0.065069694,-0.25994,0.047673,-0.35155,1016.546204
970628,-0.220246,-0.071104,-0.108973,0.763455,-0.054709898,0.048441735,-0.266736,0.053697,-0.360269,1016.546204
970728,-0.225641,-0.060966,-0.092918,0.770011122,-0.050344388,0.044402041,-0.268158,0.063332,-0.362786,1016.546204
970828,-0.234553,-0.060136,-0.084644,0.778806633,-0.045151531,0.043649796,-0.273516,0.06869,-0.368531,1016.546204
970928,-0.237015,-0.064176,-0.075977,0.795648673,-0.037052551,0.038070204,-0.272348,0.076557,-0.376646,1016.546204
971028,-0.243287,-0.073772,-0.063861,0.813493367,-0.02879102,0.035903776,-0.275761,0.081763,-0.379892,1016.546204
971128,-0.251142,-0.075802,-0.052278,0.82665602,-0.024941531,0.038207245,-0.280103,0.088151,-0.386586,1016.546204
971228,-0.259687,-0.089275,-0.044743,0.83300898,-0.029910816,0.050218469,-0.282976,0.090978,-0.392457,1016.546204
971328,-0.270731,-0.111131,-0.029883,0.84543398,-0.046906327,0.072239184,-0.284393,0.098145,-0.395601,1016.546204
971428,-0.278445,-0.127529,-0.012571,0.866006429,-0.056238878,0.080209898,-0.2863,0.098892,-0.400074,1016.546204
971528,-0.272048,-0.147054,0.00213,0.886017245,-0.059263061,0.077666429,-0.289212,0.106083,-0.403218,1016.546204
971628,-0.258045,-0.16008,0.014543,0.894947347,-0.062576633,0.078892143,-0.287111,0.109804,-0.408537,1016.546204
971728,-0.246385,-0.1757,0.026334,0.896208469,-0.068905306,0.086249286,-0.288502,0.115549,-0.413256,1016.546204
971828,-0.22938,-0.189752,0.034874,0.897252245,-0.073422755,0.107551327,-0.287933,0.118699,-0.416602,1016.546204
971928,-0.202556,-0.191482,0.035642,0.891534286,-0.07408551,0.127146837,-0.288337,0.124902,-0.420796,1016.546204
972028,-0.179517,-0.191429,0.027384,0.881208673,-0.082629286,0.141664796,-0.286293,0.127981,-0.423142,1016.546204
972128,-0.14705,-0.178247,0.010262,0.877190714,-0.089487041,0.163005102,-0.286763,0.128061,-0.424642,1016.546204
972228,-0.110327,-0.149271,-0.009683,0.88035,-0.096087449,0.174719898,-0.282209,0.131646,-0.427961,1016.546204
972328,-0.080758,-0.117066,-0.026516,0.89603398,-0.100218265,0.177071531,-0.277206,0.13311,-0.428883,1016.546204
972428,-0.054536,-0.066804,-0.034095,0.919326735,-0.098533367,0.189402245,-0.275203,0.134099,-0.429331,1016.546204
972528,-0.017305,0.004046,-0.044431,0.947817755,-0.099536122,0.197811633,-0.26619,0.134077,-0.431828,1016.546204
972628,0.033354,0.067234,-0.054448,0.97259,-0.101566327,0.181026939,-0.265109,0.134776,-0.4363,1016.546204
972728,0.084201,0.10817,-0.067385,1.001101327,-0.10095051,0.153456633,-0.255633,0.130688,-0.4375,1016.546204
972828,0.126308,0.126452,-0.077512,1.018910714,-0.101164082,0.126649286,-0.250657,0.128118,-0.437625,1016.546204
972928,0.170006,0.113692,-0.088871,1.017702857,-0.099622041,0.101512755,-0.24524,0.123901,-0.434828,1016.546204
973028,0.221147,0.084679,-0.101736,1.022567041,-0.104152449,0.097052755,-0.240838,0.114693,-0.431785,1016.547974
973128,0.276294,0.079929,-0.119041,1.054545612,-0.108631224,0.106138163,-0.236376,0.108121,-0.431614,1016.547974
973228,0.324851,0.093769,-0.130195,1.110259184,-0.114179184,0.110929286,-0.234495,0.102344,-0.426395,1016.547974
973328,0.342513,0.10039,-0.126151,1.193325612,-0.091640102,0.148170918,-0.22964,0.094004,-0.420802,1016.547974
973428,0.330756,0.133458,-0.114581,1.307304184,-0.051541735,0.260037857,-0.222297,0.08413,-0.415285,1016.547974
973528,0.277461,0.239306,-0.090361,1.41339551,-3.60E-05,0.384992551,-0.21651,0.070648,-0.406947,1016.547974
973628,0.177209,0.391389,-0.059446,1.486337959,0.073426939,0.447699082,-0.207778,0.053534,-0.396787,1016.547974
973728,0.042063,0.625679,-0.056467,1.534041429,0.157696633,0.454702041,-0.192573,0.039781,-0.385948,1016.547974
973828,-0.070399,0.878983,-0.095338,1.530230102,0.241172959,0.385695204,-0.180512,0.022701,-0.367264,1016.547974
973928,-0.114314,1.040904,-0.167012,1.507811122,0.26600449,0.234758878,-0.173001,0.004029,-0.34516,1016.547974
974028,-0.110112,1.076365,-0.236226,1.506732143,0.231814592,0.059454184,-0.171012,-0.012186,-0.320431,1016.547974
974128,-0.074569,0.983908,-0.268038,1.498997857,0.16014102,-0.101106224,-0.178537,-0.030364,-0.293308,1016.547974
974228,-0.026342,0.756493,-0.260716,1.391124592,0.060496939,-0.249168367,-0.200898,-0.04505,-0.271535,1016.547974
974328,0.011059,0.437854,-0.222286,1.229337959,-0.032834388,-0.326158265,-0.223204,-0.06009,-0.252786,1016.547974
974428,0.047308,0.143752,-0.161796,1.070286327,-0.082657551,-0.305827245,-0.249969,-0.072021,-0.234886,1016.547974
974528,0.043449,-0.065339,-0.10063,0.938799796,-0.049974796,-0.206417755,-0.27168,-0.079379,-0.220254,1016.547974
974628,0.054286,-0.204066,-0.057838,0.857156122,0.008285306,-0.117508571,-0.289897,-0.088263,-0.206197,1016.547974
974728,0.067038,-0.290431,-0.040474,0.830393571,0.109871837,-0.078168673,-0.30003,-0.09549,-0.198059,1016.547974
974828,0.013681,-0.353619,-0.026219,0.831847755,0.23286102,-0.061924184,-0.295698,-0.101901,-0.190866,1016.547974
974928,-0.130943,-0.384312,0.004024,0.882893469,0.344579184,-0.027855204,-0.291842,-0.101803,-0.183842,1016.547974
975028,-0.286887,-0.317949,0.046896,0.984238265,0.393327551,0.00794602,-0.284814,-0.097309,-0.18611,1016.547974
975128,-0.396854,-0.192517,0.098465,1.063134082,0.400709388,-0.005561429,-0.27629,-0.092341,-0.188352,1016.547974
975228,-0.45478,-0.099509,0.118494,1.081103469,0.372897653,-0.062951531,-0.270149,-0.078622,-0.195161,1016.547974
975328,-0.485317,-0.101589,0.113058,1.077510918,0.292457959,-0.111215612,-0.267996,-0.066335,-0.202048,1016.547974
975428,-0.507527,-0.148464,0.089804,1.065066735,0.179572041,-0.115676327,-0.268844,-0.050561,-0.207759,1016.547974
975528,-0.50402,-0.194957,0.053706,1.030676531,0.054004796,-0.098080714,-0.274128,-0.034595,-0.215969,1016.547974
975628,-0.470232,-0.231053,0.009407,0.988478776,-0.05809949,-0.074618061,-0.282472,-0.02174,-0.220834,1016.547974
975728,-0.398754,-0.262296,-0.021502,0.951695918,-0.110653776,-0.063341122,-0.290319,-0.004932,-0.224997,1016.547974
975828,-0.280583,-0.299786,-0.032697,0.921806531,-0.109249592,-0.050294898,-0.294186,-0.000594,-0.230792,1016.547974
975928,-0.134306,-0.321039,-0.038347,0.901783265,-0.082984286,-0.022518265,-0.299053,0.011185,-0.235208,1016.547974
976028,-0.006872,-0.325276,-0.035235,0.891395714,-0.05428,0.010586735,-0.301999,0.014817,-0.23703,1016.547974
976128,0.074718,-0.312686,-0.02198,0.878197041,-0.021019286,0.041454796,-0.299976,0.02131,-0.237699,1016.547974
976228,0.113446,-0.291725,0.001132,0.869467755,0.004474082,0.072240102,-0.299387,0.025505,-0.241994,1016.547974
976328,0.126202,-0.248091,0.034331,0.861143878,0.028191429,0.091214898,-0.297884,0.025505,-0.242493,1016.547974
976428,0.125003,-0.192255,0.068875,0.851426429,0.050649082,0.091555306,-0.291909,0.028874,-0.241814,1016.547974
976528,0.115511,-0.151541,0.096214,0.821629592,0.076715408,0.076232755,-0.288366,0.029461,-0.244786,1016.547974
976628,0.077845,-0.127172,0.106814,0.790281939,0.097062755,0.08293898,-0.280404,0.029809,-0.244258,1016.547974
976728,0.033375,-0.101997,0.105896,0.771469796,0.112683367,0.090305408,-0.276384,0.033804,-0.245553,1016.547974
976828,0.012786,-0.064874,0.105776,0.757100204,0.119953469,0.083670102,-0.271425,0.031684,-0.244654,1016.547974
976928,0.023825,-0.025694,0.101017,0.749935816,0.119006837,0.065359694,-0.264928,0.033124,-0.245575,1016.547974
977028,0.061159,-0.005231,0.101484,0.750089184,0.104121429,0.043361939,-0.260879,0.032731,-0.249098,1016.547974
977128,0.10397,-0.009036,0.103833,0.762242245,0.085091224,0.037115102,-0.253404,0.034606,-0.248994,1016.547974
977228,0.144163,-0.017672,0.100319,0.785515306,0.072931224,0.048770102,-0.250821,0.034309,-0.254017,1016.547974
977328,0.18404,-0.038569,0.093047,0.811410612,0.065975714,0.05055602,-0.244344,0.034704,-0.253989,1016.547974
977428,0.227732,-0.082063,0.080835,0.837416939,0.054961735,0.051418061,-0.23935,0.036642,-0.254386,1016.547974
977528,0.285518,-0.125311,0.065872,0.874473673,0.048870408,0.062030918,-0.240855,0.036144,-0.253912,1016.547974
977628,0.334184,-0.15898,0.051882,0.898474592,0.050555204,0.07970398,-0.240376,0.036088,-0.252912,1016.547974
977728,0.367644,-0.165663,0.040178,0.899847041,0.055205102,0.103526429,-0.24292,0.032021,-0.250617,1016.547974
977828,0.377962,-0.150276,0.031324,0.882022857,0.060008878,0.12780949,-0.245963,0.032422,-0.247594,1016.547974
977928,0.379314,-0.115413,0.03091,0.85695,0.065508061,0.152873776,-0.251056,0.027253,-0.242352,1016.549683
978028,0.370286,-0.073492,0.03545,0.831500408,0.082099796,0.171523367,-0.256679,0.024986,-0.234958,1016.549683
978128,0.355387,-0.036814,0.041534,0.81093051,0.098106224,0.181169694,-0.256226,0.0199,-0.233212,1016.549683
978228,0.337187,-0.002952,0.050596,0.801906327,0.116629898,0.190164082,-0.255822,0.013696,-0.229019,1016.549683
978328,0.314242,0.037658,0.063512,0.810124796,0.125565918,0.197114082,-0.252931,0.005959,-0.224901,1016.549683
978428,0.299848,0.096854,0.076747,0.841551939,0.127556224,0.20046602,-0.246552,0.003623,-0.220002,1016.549683
978528,0.291869,0.161501,0.090482,0.886467857,0.12216051,0.189066939,-0.237138,-0.004097,-0.218381,1016.549683
978628,0.28888,0.2134,0.102624,0.927889082,0.124416224,0.175712755,-0.229196,-0.009254,-0.217633,1016.549683
978728,0.28675,0.233855,0.115648,0.95870551,0.12426949,0.16877898,-0.221289,-0.018968,-0.215614,1016.549683
978828,0.272905,0.24136,0.126079,0.984830612,0.122246429,0.164881327,-0.215883,-0.023707,-0.212343,1016.549683
978928,0.254674,0.265449,0.133395,1.008558163,0.118193673,0.164715612,-0.210533,-0.028591,-0.206072,1016.549683
979028,0.222223,0.295274,0.136195,1.028975816,0.116505714,0.144920408,-0.205633,-0.032849,-0.202276,1016.549683
979128,0.165998,0.277022,0.140921,1.050402551,0.125559082,0.110904388,-0.201257,-0.035676,-0.196903,1016.549683
979228,0.090682,0.215535,0.145993,1.094401735,0.145643367,0.096660612,-0.202305,-0.043728,-0.195311,1016.549683
979328,0.007891,0.173601,0.153263,1.132977347,0.178714388,0.120231837,-0.199421,-0.045535,-0.189888,1016.549683
979428,-0.064882,0.203061,0.15978,1.161287857,0.201116429,0.189370816,-0.19848,-0.045696,-0.186889,1016.549683
979528,-0.099938,0.306474,0.152988,1.201375612,0.198587755,0.282820408,-0.199035,-0.045832,-0.18389,1016.549683
979628,-0.086843,0.440854,0.14476,1.247997959,0.16413949,0.368265102,-0.198618,-0.050019,-0.180095,1016.549683
979728,-0.056679,0.596441,0.140401,1.31310051,0.105026735,0.42117949,-0.195745,-0.052348,-0.174198,1016.549683
979828,-0.014397,0.810669,0.160567,1.399997959,0.023200714,0.423916429,-0.193393,-0.057707,-0.167454,1016.549683
979928,0.058427,1.026251,0.197589,1.465732143,-0.039464796,0.365678163,-0.198144,-0.062296,-0.153664,1016.549683
980028,0.128937,1.135235,0.205452,1.481595918,-0.079494898,0.246399184,-0.202904,-0.072366,-0.140153,1016.549683
980128,0.163575,1.132874,0.244489,1.508548878,-0.059729898,0.123277449,-0.220177,-0.084375,-0.12375,1016.549683
980228,0.13918,1.026168,0.276159,1.534775306,0.002495408,0.014215816,-0.240442,-0.097831,-0.107423,1016.549683
980328,0.10795,0.818574,0.243681,1.474421735,0.08448949,-0.104357143,-0.27009,-0.102499,-0.094166,1016.549683
980428,0.054246,0.552921,0.148743,1.344611633,0.13852398,-0.219093469,-0.300066,-0.104733,-0.089804,1016.549683
980528,-0.02095,0.263996,0.02686,1.239917245,0.121789388,-0.259388163,-0.323483,-0.102393,-0.08921,1016.549683
980628,-0.129695,-0.005549,-0.063888,1.136798673,0.050529694,-0.233775714,-0.34639,-0.098541,-0.089039,1016.549683
980728,-0.244363,-0.250185,-0.089119,1.020102959,-0.009493163,-0.196049694,-0.360239,-0.094592,-0.093864,1016.549683
980828,-0.294968,-0.459543,-0.078222,0.944765408,-0.067069184,-0.161674388,-0.368162,-0.089387,-0.095612,1016.549683
980928,-0.198487,-0.593784,-0.062252,0.93910449,-0.123779592,-0.099392143,-0.366646,-0.082411,-0.095755,1016.549683
981028,0.012471,-0.576602,-0.059826,0.986938776,-0.167502245,-0.032727347,-0.360592,-0.081317,-0.099701,1016.549683
981128,0.219643,-0.432726,-0.078494,1.05618551,-0.184746531,0.008209694,-0.354593,-0.079371,-0.100597,1016.549683
981228,0.362269,-0.251679,-0.099753,1.098742959,-0.168733776,0.031335408,-0.34262,-0.08001,-0.101618,1016.549683
981328,0.415408,-0.142962,-0.110817,1.094888265,-0.119671633,0.022603776,-0.336145,-0.080113,-0.101616,1016.549683
981428,0.411399,-0.150166,-0.117918,1.079847041,-0.052714796,0.012047857,-0.330637,-0.07963,-0.103089,1016.549683
981528,0.374847,-0.192627,-0.122044,1.076978367,0.012434082,0.021076735,-0.328167,-0.081212,-0.102165,1016.549683
981628,0.304535,-0.20262,-0.130178,1.051283673,0.07783551,0.030984796,-0.327075,-0.078994,-0.107061,1016.549683
981728,0.213963,-0.183459,-0.148637,0.996699082,0.13191449,0.03602898,-0.325516,-0.079348,-0.110584,1016.549683
981828,0.117669,-0.164105,-0.183465,0.922905714,0.177434694,0.037966122,-0.322958,-0.073264,-0.113277,1016.549683
981928,0.025026,-0.167119,-0.221444,0.845577143,0.186716429,0.045997653,-0.324307,-0.069391,-0.120597,1016.549683
982028,-0.051973,-0.185469,-0.256692,0.795661939,0.169287143,0.055312959,-0.322163,-0.062086,-0.127738,1016.549683
982128,-0.109373,-0.18289,-0.278259,0.762611224,0.144232347,0.072519592,-0.318991,-0.05323,-0.136302,1016.549683
982228,-0.149177,-0.1481,-0.286514,0.737448571,0.112885306,0.078622551,-0.313829,-0.045403,-0.144916,1016.549683
982328,-0.167752,-0.12203,-0.286986,0.70849551,0.075066735,0.063143673,-0.306193,-0.036168,-0.152453,1016.549683
982428,-0.167517,-0.108405,-0.277729,0.695434694,0.045492857,0.060773061,-0.299518,-0.028315,-0.162066,1016.549683
982528,-0.161921,-0.100639,-0.259376,0.702287959,0.022175306,0.058827143,-0.291804,-0.017393,-0.173525,1016.549683
982628,-0.157919,-0.102377,-0.23818,0.723813673,0.000830612,0.059447857,-0.284635,-0.007082,-0.182511,1016.549683
982728,-0.15449,-0.104068,-0.215394,0.750520612,-0.014587449,0.072982755,-0.281906,0.001927,-0.194074,1016.551392
982828,-0.146664,-0.098594,-0.198098,0.774303265,-0.02241551,0.083354592,-0.279749,0.011249,-0.201613,1016.551392
982928,-0.141201,-0.083875,-0.194454,0.802577959,-0.025980204,0.092587245,-0.276548,0.021173,-0.211625,1016.551392
983028,-0.146789,-0.053169,-0.195225,0.828904286,-0.024852755,0.097040102,-0.275377,0.031033,-0.219639,1016.551392
983128,-0.17645,-0.03011,-0.188777,0.84478551,-0.01673051,0.092063571,-0.27421,0.038402,-0.22778,1016.551392
983228,-0.22276,-0.02867,-0.176562,0.85532949,-0.007211633,0.078917959,-0.276549,0.04528,-0.234947,1016.551392
983328,-0.2743,-0.055144,-0.159044,0.869895204,-0.002957245,0.074125102,-0.280428,0.053057,-0.239566,1016.551392
983428,-0.319803,-0.102776,-0.135466,0.879316735,-0.008410102,0.07190398,-0.286271,0.060939,-0.245684,1016.551392
983528,-0.34408,-0.168466,-0.107315,0.887913061,-0.019709286,0.083149082,-0.288604,0.065848,-0.253453,1016.551392
983628,-0.345091,-0.228991,-0.079113,0.891968061,-0.034373367,0.105614082,-0.293515,0.074541,-0.256021,1016.551392
983728,-0.327597,-0.276809,-0.05181,0.896326429,-0.052531633,0.138927551,-0.297381,0.078879,-0.261817,1016.551392
983828,-0.307381,-0.287049,-0.033161,0.900372143,-0.068473776,0.178600408,-0.299804,0.08554,-0.264487,1016.551392
983928,-0.28479,-0.257356,-0.023253,0.905841122,-0.087657755,0.218702857,-0.302721,0.089742,-0.267783,1016.551392
984028,-0.260675,-0.18989,-0.020606,0.904219184,-0.095515,0.24422602,-0.303687,0.090826,-0.269232,1016.551392
984128,-0.22359,-0.113398,-0.016105,0.898325306,-0.095406327,0.258508163,-0.30259,0.095536,-0.274001,1016.551392
984228,-0.186032,-0.049424,-0.018158,0.894407347,-0.08154551,0.248298367,-0.3006,0.099466,-0.273297,1016.551392
984328,-0.149893,0.007676,-0.025628,0.897331429,-0.064271224,0.231082653,-0.293618,0.098881,-0.27382,1016.553101
984428,-0.1187,0.058295,-0.030379,0.902841939,-0.054200204,0.22014602,-0.290563,0.0995,-0.277292,1016.553101
984528,-0.067707,0.107175,-0.032312,0.916450714,-0.05137949,0.212055612,-0.288554,0.098022,-0.278368,1016.553101
984628,-4.70E-05,0.157666,-0.034249,0.926648673,-0.051848265,0.192826633,-0.282561,0.096481,-0.279442,1016.553101
984728,0.067204,0.190135,-0.040067,0.937485918,-0.055344082,0.162310204,-0.272577,0.097865,-0.280362,1016.553101
984828,0.125087,0.183547,-0.050984,0.948478163,-0.059061837,0.140615408,-0.268587,0.095833,-0.280962,1016.553101
984928,0.162645,0.141831,-0.06474,0.964280102,-0.058551939,0.129630408,-0.263071,0.095345,-0.282985,1016.553101
985028,0.191919,0.076932,-0.078101,0.998124184,-0.061763061,0.136137143,-0.258117,0.090235,-0.282238,1016.553101
985128,0.230236,0.013424,-0.089091,1.054921122,-0.057251224,0.141080918,-0.256163,0.089609,-0.280263,1016.553101
985228,0.284925,-0.01221,-0.100007,1.122657041,-0.05847551,0.143230816,-0.252153,0.087625,-0.281863,1016.553101
985328,0.359543,0.016315,-0.105299,1.178740204,-0.054198367,0.159980102,-0.251319,0.07975,-0.274247,1016.553101
985428,0.412962,0.071021,-0.105805,1.222755816,-0.029085,0.207634082,-0.251332,0.072775,-0.274603,1016.553101
