PacketCounter,SampleTimeFine,Acc_X,Acc_Y,Acc_Z,Gyr_X,Gyr_Y,Gyr_Z,Mag_X,Mag_Y,Mag_Z,Roll,Pitch,Yaw
03260,427438,9.598782,0.401313,1.851733,-0.122685,0.023707,-0.026024,-0.098548,-0.429099,0.332797,10.031454,-77.699046,-9.805674
03261,427538,9.630932,0.523222,1.866628,-0.134958,0.017198,-0.019977,-0.099078,-0.431156,0.334194,10.001695,-77.687804,-9.854070
03262,427638,9.642391,0.671817,1.889508,-0.144181,0.005268,-0.013923,-0.099569,-0.432619,0.333618,9.956465,-77.683905,-9.892025
03263,427738,9.648489,0.704576,1.952104,-0.148906,-0.008941,-0.013105,-0.100619,-0.436709,0.335913,9.912896,-77.688114,-9.934435
03264,427838,9.670940,0.605349,2.028211,-0.142508,-0.016408,-0.016543,-0.102634,-0.438719,0.336811,9.885293,-77.696204,-9.989421
03265,427938,9.693302,0.443232,2.040466,-0.134402,0.004726,-0.023235,-0.102229,-0.438968,0.341809,9.870128,-77.691712,-10.052380
03266,428038,9.613056,0.279046,1.981553,-0.127693,0.039375,-0.032019,-0.105204,-0.441861,0.340656,9.865851,-77.666804,-10.122558
03267,428138,9.480290,0.185780,1.782746,-0.125600,0.048107,-0.041049,-0.108729,-0.447359,0.341875,9.881954,-77.636084,-10.212387
03268,428238,9.486614,0.236032,1.869551,-0.124173,0.034937,-0.038468,-0.107782,-0.444031,0.345052,9.897894,-77.613051,-10.301230
03269,428338,9.550166,0.353987,1.969883,-0.121234,0.020173,-0.032754,-0.108806,-0.449046,0.345797,9.907307,-77.598912,-10.381672
03270,428438,9.590102,0.438052,2.041121,-0.122296,-0.005294,-0.024535,-0.111346,-0.451120,0.348194,9.906388,-77.599956,-10.452158
03271,428538,9.639312,0.498424,2.179414,-0.131176,-0.033266,-0.016033,-0.110864,-0.455138,0.348490,9.891143,-77.617626,-10.513176
03272,428638,9.694591,0.453351,2.240613,-0.130026,-0.036288,-0.009860,-0.110944,-0.457822,0.352362,9.862095,-77.637610,-10.559378
03273,428738,9.679855,0.399769,2.173207,-0.127979,-0.021956,-0.008669,-0.112465,-0.457372,0.353886,9.824752,-77.649624,-10.595885
03274,428838,9.610140,0.336896,2.059153,-0.122864,0.002327,-0.010658,-0.114008,-0.458963,0.356309,9.784621,-77.647740,-10.626538
03275,428938,9.551324,0.314860,1.963084,-0.114188,0.005563,-0.013458,-0.116080,-0.461615,0.360180,9.755238,-77.643763,-10.663107
03276,429038,9.556029,0.337476,2.007669,-0.104376,0.001791,-0.015564,-0.115143,-0.463769,0.363077,9.738573,-77.641716,-10.706943
03277,429138,9.595360,0.386179,2.007994,-0.097773,-0.009467,-0.014387,-0.115690,-0.465376,0.365500,9.727644,-77.646143,-10.752777
03278,429238,9.628620,0.387732,2.102243,-0.090060,-0.027172,-0.017281,-0.118758,-0.468012,0.369370,9.736470,-77.660289,-10.814307
03279,429338,9.647062,0.322060,2.197612,-0.082781,-0.045393,-0.019457,-0.118357,-0.470752,0.374241,9.763289,-77.684506,-10.889984
03280,429438,9.652041,0.263826,2.313916,-0.073013,-0.057617,-0.027598,-0.116933,-0.473436,0.377613,9.822488,-77.714816,-10.993069
03281,429538,9.659898,0.219809,2.389704,-0.059709,-0.050132,-0.036116,-0.113526,-0.477171,0.381435,9.908426,-77.740030,-11.115713
03282,429638,9.617340,0.257605,2.343547,-0.048915,-0.038009,-0.041055,-0.111107,-0.480867,0.384757,10.008243,-77.757866,-11.246227
03283,429738,9.556765,0.278241,2.217144,-0.048489,-0.038334,-0.039332,-0.111679,-0.480553,0.388780,10.104291,-77.776007,-11.372630
03284,429838,9.499045,0.316625,2.113503,-0.052023,-0.061474,-0.040689,-0.106792,-0.486828,0.392976,10.213061,-77.807012,-11.514111
03285,429938,9.517889,0.298727,2.108062,-0.063860,-0.098315,-0.041232,-0.104406,-0.488129,0.398423,10.334692,-77.858670,-11.675668
03286,430038,9.508273,0.200499,2.171352,-0.065398,-0.131477,-0.044204,-0.101548,-0.493970,0.404642,10.480612,-77.928626,-11.862940
03287,430138,9.511632,0.074232,2.248867,-0.054348,-0.155568,-0.050235,-0.100662,-0.498735,0.409912,10.662788,-78.011400,-12.080770
03288,430238,9.580481,0.067347,2.252537,-0.033634,-0.162635,-0.055829,-0.095820,-0.504133,0.416656,10.878160,-78.097391,-12.320348
03289,430338,9.633408,0.220773,2.189933,-0.024323,-0.161583,-0.064768,-0.094944,-0.508922,0.422426,11.125621,-78.181609,-12.587196
03290,430438,9.619605,0.224920,2.107080,-0.027929,-0.148578,-0.065918,-0.092581,-0.513260,0.428721,11.370691,-78.258152,-12.853643
03291,430538,9.644848,0.497915,1.985483,-0.039728,-0.134578,-0.051983,-0.089820,-0.521335,0.439836,11.566655,-78.328210,-13.076769
03292,430638,9.639760,0.433089,1.977479,-0.055499,-0.127167,-0.060919,-0.091957,-0.529612,0.446426,11.776260,-78.392913,-13.322992
03293,430738,9.671995,0.399292,1.999960,-0.051299,-0.111112,-0.051690,-0.093570,-0.533863,0.452220,11.956148,-78.449531,-13.536372
03294,430838,9.763534,0.261521,1.887219,-0.056567,-0.088345,-0.045613,-0.091708,-0.539689,0.458439,12.104715,-78.493996,-13.720836
03295,430938,9.532015,0.198255,1.909731,-0.054785,-0.064204,-0.043717,-0.094835,-0.544463,0.465206,12.235856,-78.525079,-13.886463
03296,431038,9.523269,0.221074,1.897768,-0.039257,-0.062424,-0.043383,-0.093473,-0.551276,0.471374,12.374685,-78.555130,-14.050847
03297,431138,9.542920,0.282883,2.011163,-0.011595,-0.067153,-0.051287,-0.094074,-0.556491,0.476118,12.554970,-78.586757,-14.241346
03298,431238,9.567411,0.382444,2.078888,0.019754,-0.072784,-0.058941,-0.091710,-0.560332,0.482439,12.779048,-78.620433,-14.458174
03299,431338,9.591085,0.412068,2.101190,0.052182,-0.063012,-0.073261,-0.093372,-0.565700,0.490681,13.056559,-78.646625,-14.710531
03300,431438,9.564352,0.412168,2.131916,0.078256,-0.050360,-0.081930,-0.092951,-0.567395,0.494603,13.366002,-78.664365,-14.980201
03301,431538,9.516004,0.369801,2.088910,0.087602,-0.033456,-0.085030,-0.087617,-0.571331,0.501924,13.678885,-78.671981,-15.247909
03302,431638,9.513604,0.325604,2.070469,0.080418,-0.017187,-0.077632,-0.085245,-0.575645,0.507719,13.956248,-78.671283,-15.483592
03303,431738,9.517068,0.312866,2.026229,0.065957,-0.003252,-0.067025,-0.085806,-0.579768,0.510514,14.186106,-78.664110,-15.679286
03304,431838,9.540206,0.321673,1.980375,0.046693,0.004283,-0.048143,-0.082954,-0.583640,0.517335,14.347057,-78.655286,-15.815973
03305,431938,9.585636,0.369065,1.996765,0.031728,0.015224,-0.034788,-0.078083,-0.588468,0.522606,14.454501,-78.642230,-15.906840
03306,432038,9.616972,0.442680,2.030018,0.022599,0.022167,-0.024415,-0.074168,-0.591191,0.525979,14.522913,-78.626779,-15.963235
03307,432138,9.635222,0.531424,2.057628,0.029078,0.029889,-0.018933,-0.074244,-0.597338,0.529172,14.574249,-78.607819,-15.998427
03308,432238,9.638970,0.618057,2.084069,0.040284,0.041253,-0.013764,-0.072310,-0.599009,0.532095,14.609536,-78.583295,-16.010691
03309,432338,9.620591,0.669745,2.079571,0.061635,0.053866,-0.010310,-0.069833,-0.601563,0.532469,14.638481,-78.552272,-16.003996
03310,432438,9.630359,0.696320,2.065015,0.077507,0.068483,-0.009274,-0.065845,-0.600132,0.532547,14.663212,-78.513292,-15.983710
03311,432538,9.585229,0.641736,2.029905,0.077557,0.083224,-0.007146,-0.068446,-0.604841,0.537815,14.671709,-78.466449,-15.946817
03312,432638,9.602403,0.565874,1.972985,0.060570,0.085734,-0.007167,-0.064493,-0.602012,0.539968,14.668898,-78.418210,-15.908306
03313,432738,9.630312,0.479489,1.972104,0.042783,0.079136,-0.004863,-0.060962,-0.602943,0.537419,14.654521,-78.373961,-15.868387
03314,432838,9.657175,0.450045,1.933710,0.032937,0.073710,-0.006747,-0.057970,-0.601496,0.537496,14.643575,-78.332446,-15.837727
03315,432938,9.666198,0.477771,1.890586,0.029911,0.068400,-0.006811,-0.053397,-0.597862,0.533177,14.634923,-78.293866,-15.811178
03316,433038,9.653572,0.559725,1.891056,0.029917,0.057619,-0.008743,-0.047840,-0.595764,0.529282,14.639053,-78.260983,-15.797673
03317,433138,9.606355,0.677811,1.921751,0.027945,0.044565,-0.011012,-0.040784,-0.591198,0.525515,14.657213,-78.235008,-15.799642
03318,433238,9.598753,0.760354,1.917641,0.013044,0.036154,-0.013063,-0.030572,-0.581287,0.513505,14.678124,-78.213397,-15.813130
03319,433338,9.635836,0.772935,1.956946,-0.003713,0.033857,-0.013114,-0.023993,-0.575171,0.508814,14.691136,-78.193049,-15.828345
03320,433438,9.601393,0.706946,1.961890,-0.013930,0.040634,-0.007926,-0.023908,-0.564041,0.505874,14.679837,-78.169698,-15.824693
03321,433538,9.561923,0.609743,1.940108,-0.015192,0.044921,-0.004698,-0.032848,-0.559865,0.505075,14.656370,-78.144439,-15.809342
03322,433638,9.529551,0.515314,2.011772,-0.006175,0.041493,-0.008347,-0.046854,-0.555826,0.508773,14.650120,-78.120550,-15.806302
03323,433738,9.516481,0.425269,2.071010,0.012064,0.032205,-0.012569,-0.067806,-0.552103,0.510943,14.671811,-78.101194,-15.821142
03324,433838,9.487344,0.321525,2.076229,0.033466,0.012626,-0.018181,-0.086387,-0.553192,0.518884,14.733919,-78.091870,-15.864764
03325,433938,9.518996,0.336849,2.038696,0.037254,-0.005885,-0.023432,-0.108443,-0.552708,0.526399,14.824729,-78.092020,-15.935511
03326,434038,9.604249,0.374114,2.009133,0.045895,-0.007837,-0.024390,-0.130012,-0.553251,0.534364,14.924355,-78.093087,-16.010216
03327,434138,9.643674,0.494385,1.971248,0.058646,0.007524,-0.020523,-0.152131,-0.556897,0.544675,15.010348,-78.086199,-16.063524
03328,434238,9.635800,0.579852,1.903999,0.059496,0.016685,-0.017080,-0.175218,-0.560455,0.553487,15.081270,-78.074740,-16.100931
03329,434338,9.599914,0.621255,1.931073,0.056384,0.009767,-0.013157,-0.191306,-0.565047,0.560750,15.144948,-78.067685,-16.132753
03330,434438,9.587256,0.576073,2.026632,0.057635,-0.002592,-0.013920,-0.203390,-0.569654,0.567016,15.220067,-78.067341,-16.175535
03331,434538,9.566660,0.520256,2.029698,0.060813,-0.011667,-0.015439,-0.211451,-0.574229,0.571283,15.307462,-78.071770,-16.229002
03332,434638,9.552358,0.464191,1.998364,0.055556,-0.018797,-0.017492,-0.213511,-0.580818,0.573951,15.402391,-78.079809,-16.293252
03333,434738,9.534925,0.516968,1.928023,0.053062,-0.023054,-0.019256,-0.215550,-0.585865,0.575695,15.503704,-78.089907,-16.365486
03334,434838,9.525966,0.647129,1.875545,0.050579,-0.026198,-0.017345,-0.217638,-0.593026,0.579837,15.601044,-78.102010,-16.435104
03335,434938,9.568425,0.741577,1.881848,0.050007,-0.030296,-0.016933,-0.218195,-0.594657,0.582760,15.700184,-78.116413,-16.506884
03336,435038,9.628483,0.745718,1.901026,0.052570,-0.032808,-0.014221,-0.225237,-0.601666,0.585401,15.795766,-78.132598,-16.573514
03337,435138,9.626864,0.661647,1.942490,0.050421,-0.037556,-0.013456,-0.221329,-0.603417,0.589324,15.891887,-78.151497,-16.641943
03338,435238,9.626900,0.578623,1.992483,0.045248,-0.037507,-0.010055,-0.224825,-0.608344,0.589069,15.976324,-78.170881,-16.701456
03339,435338,9.625942,0.508099,2.002359,0.043118,-0.033870,-0.006495,-0.225378,-0.607982,0.592093,16.047640,-78.188807,-16.748808
03340,435438,9.584505,0.452947,1.940634,0.044487,-0.032556,-0.004895,-0.227402,-0.605057,0.594244,16.114690,-78.206253,-16.791005
03341,435538,9.551762,0.432784,1.937659,0.046366,-0.031069,-0.004713,-0.223817,-0.601882,0.589399,16.181349,-78.222900,-16.831706
03342,435638,9.579814,0.483018,1.955605,0.047824,-0.032060,-0.001175,-0.216340,-0.599012,0.589554,16.240400,-78.240649,-16.863783
03343,435738,9.633030,0.527413,1.961314,0.046152,-0.032142,-0.001638,-0.206794,-0.594983,0.585762,16.299913,-78.258361,-16.897312
03344,435838,9.660948,0.631405,1.923614,0.041614,-0.022094,-0.001106,-0.200208,-0.590337,0.580495,16.347761,-78.270629,-16.921576
03345,435938,9.645209,0.722806,2.002834,0.040385,-0.027288,-0.000481,-0.189611,-0.581222,0.574458,16.397385,-78.285846,-16.948364
03346,436038,9.704187,0.774288,1.986751,0.037652,-0.022231,-0.005545,-0.182494,-0.574020,0.567818,16.455039,-78.297456,-16.984939
03347,436138,9.691374,0.722573,1.903492,0.031938,-0.005255,-0.010910,-0.178445,-0.568957,0.565075,16.510415,-78.298860,-17.022523
03348,436238,9.637744,0.690718,1.887244,0.023582,0.004538,-0.015086,-0.175267,-0.562070,0.555910,16.564381,-78.294197,-17.063552
03349,436338,9.556968,0.597902,1.884273,0.017103,0.007991,-0.020482,-0.179632,-0.552765,0.550868,16.626163,-78.286748,-17.116352
03350,436438,9.479954,0.540989,1.907064,0.008514,0.011214,-0.021284,-0.181618,-0.543790,0.551824,16.682516,-78.277386,-17.168636
03351,436538,9.453257,0.529581,1.878318,0.005428,0.010962,-0.018712,-0.182956,-0.533938,0.544809,16.730417,-78.268577,-17.214098
03352,436638,9.483020,0.572119,1.846748,0.006217,0.006896,-0.017842,-0.185383,-0.529270,0.542038,16.779640,-78.262136,-17.260451
03353,436738,9.519615,0.564087,1.860356,0.012593,-0.000897,-0.014839,-0.191252,-0.520465,0.537470,16.830761,-78.260459,-17.305012
03354,436838,9.542209,0.545112,1.895122,0.021631,-0.008789,-0.015277,-0.197223,-0.516882,0.537646,16.894519,-78.263029,-17.357192
03355,436938,9.588898,0.511469,1.934567,0.031477,-0.006961,-0.014449,-0.203118,-0.512111,0.533875,16.960281,-78.264723,-17.405661
03356,437038,9.631461,0.542254,1.976629,0.037866,-0.004885,-0.013533,-0.208598,-0.507065,0.534627,17.025624,-78.265421,-17.449967
03357,437138,9.627963,0.605408,2.031358,0.035798,-0.003533,-0.013697,-0.213539,-0.504897,0.532728,17.089124,-78.265339,-17.493599
03358,437238,9.647321,0.699866,2.015218,0.030367,-0.006519,-0.010586,-0.219994,-0.498792,0.532531,17.143747,-78.267405,-17.531336
03359,437338,9.642554,0.792871,1.982775,0.027381,-0.007346,-0.009169,-0.225965,-0.495209,0.532706,17.193632,-78.270155,-17.565971
03360,437438,9.630672,0.794918,1.925683,0.018693,-0.008244,-0.010010,-0.230948,-0.495628,0.532680,17.241528,-78.273246,-17.603648
03361,437538,9.601639,0.715902,1.881904,0.015240,-0.010892,-0.010713,-0.233415,-0.493050,0.531806,17.291506,-78.277660,-17.645466
03362,437638,9.567098,0.585648,1.856047,0.017960,-0.020325,-0.010274,-0.235299,-0.489265,0.526486,17.349689,-78.287302,-17.694071
03363,437738,9.592958,0.475670,1.897939,0.027567,-0.030909,-0.010102,-0.236302,-0.487779,0.527061,17.421763,-78.302750,-17.751246
03364,437838,9.621435,0.414493,1.916657,0.037521,-0.028278,-0.007191,-0.233706,-0.486059,0.521641,17.489812,-78.317247,-17.798493
03365,437938,9.590098,0.390708,1.889172,0.044389,-0.014541,-0.004669,-0.228689,-0.481582,0.520371,17.543769,-78.324665,-17.827340
03366,438038,9.535356,0.455649,1.878257,0.038662,-0.010380,-0.005536,-0.223532,-0.476743,0.511605,17.593288,-78.329657,-17.855015
03367,438138,9.529210,0.588566,1.911307,0.034147,-0.012264,-0.001162,-0.214987,-0.475190,0.507685,17.630265,-78.336431,-17.872523
03368,438238,9.538730,0.741569,1.914223,0.026038,-0.012554,0.001896,-0.205873,-0.469989,0.500445,17.654792,-78.343891,-17.882056
03369,438338,9.576102,0.849391,1.938573,0.020446,-0.017406,0.005612,-0.196731,-0.465214,0.491680,17.670410,-78.354644,-17.885751
03370,438438,9.609718,0.868696,1.945776,0.011303,-0.030235,0.007873,-0.185588,-0.460944,0.482391,17.685677,-78.372790,-17.894421
03371,438538,9.611935,0.819539,1.988507,0.002674,-0.041557,0.005537,-0.174469,-0.454256,0.474727,17.711864,-78.396706,-17.919276
03372,438638,9.682019,0.715309,1.980739,0.001551,-0.040539,0.004642,-0.167828,-0.449963,0.466436,17.739035,-78.419906,-17.945784
03373,438738,9.683164,0.680345,1.926204,0.017961,-0.031935,0.001371,-0.163165,-0.442626,0.457796,17.777100,-78.437836,-17.973810
03374,438838,9.650055,0.597008,1.806264,0.029819,-0.024362,-0.002617,-0.161483,-0.436213,0.448605,17.826220,-78.450933,-18.006184
03375,438938,9.613434,0.554374,1.768181,0.034607,-0.014308,-0.003503,-0.161864,-0.432429,0.442785,17.871886,-78.458389,-18.032234
03376,439038,9.557087,0.538160,1.799411,0.035997,-0.017557,-0.005344,-0.160167,-0.428459,0.432468,17.926113,-78.467290,-18.066213
03377,439138,9.527396,0.569029,1.836558,0.029847,-0.034212,-0.006028,-0.161478,-0.419034,0.423928,17.993161,-78.485141,-18.116872
03378,439238,9.544817,0.595179,1.892996,0.006545,-0.056046,-0.000875,-0.160303,-0.412139,0.415262,18.052287,-78.515790,-18.173068
03379,439338,9.556762,0.644606,1.990368,-0.006116,-0.062987,0.004221,-0.161161,-0.407302,0.408493,18.096856,-78.551113,-18.221803
03380,439438,9.585252,0.721009,2.000521,-0.005746,-0.047238,0.008476,-0.163485,-0.402369,0.400224,18.116556,-78.578608,-18.244939
03381,439538,9.586923,0.742100,1.889928,-0.000145,-0.022857,0.008964,-0.164811,-0.395957,0.392032,18.116712,-78.592911,-18.244853
03382,439638,9.597778,0.727525,1.876960,0.012033,-0.011423,0.008257,-0.169204,-0.392181,0.387710,18.115666,-78.600861,-18.236417
03383,439738,9.640196,0.672898,1.912588,0.024883,-0.008646,0.008080,-0.173061,-0.387820,0.381415,18.120005,-78.607266,-18.225961
03384,439838,9.672760,0.609570,1.881114,0.034094,-0.012936,0.004790,-0.180469,-0.383571,0.378617,18.142314,-78.615420,-18.228453
03385,439938,9.668740,0.605964,1.840695,0.038599,-0.025640,0.003668,-0.184874,-0.380816,0.374744,18.181541,-78.630291,-18.245570
03386,440038,9.709817,0.608153,1.793806,0.038737,-0.041801,-0.000094,-0.188270,-0.377056,0.370423,18.245544,-78.653282,-18.287876
03387,440138,9.666366,0.590746,1.775551,0.036871,-0.054470,-0.004160,-0.196655,-0.376705,0.365922,18.331131,-78.682425,-18.353284
03388,440238,9.609670,0.586207,1.757787,0.035721,-0.055924,-0.009116,-0.202500,-0.369820,0.359753,18.431260,-78.711444,-18.434187
03389,440338,9.562956,0.571910,1.743400,0.034365,-0.052307,-0.014127,-0.202394,-0.367562,0.354356,18.541439,-78.737560,-18.526125
03390,440438,9.521307,0.599563,1.749833,0.031737,-0.047668,-0.017569,-0.206250,-0.362702,0.348086,18.655707,-78.760494,-18.623762
03391,440538,9.527026,0.669913,1.751053,0.033675,-0.045562,-0.016538,-0.205116,-0.358394,0.341293,18.766748,-78.782437,-18.716965
03392,440638,9.581978,0.714953,1.774679,0.035189,-0.046683,-0.015764,-0.205452,-0.355984,0.332897,18.877999,-78.805097,-18.809486
03393,440738,9.584735,0.706109,1.790480,0.034226,-0.052372,-0.011803,-0.203811,-0.351661,0.325604,18.983617,-78.831542,-18.896816
03394,440838,9.650052,0.663866,1.825666,0.035085,-0.052946,-0.005610,-0.205113,-0.342710,0.316539,19.073704,-78.859425,-18.967804
03395,440938,9.705209,0.631766,1.842072,0.040947,-0.050113,-0.001147,-0.199465,-0.341367,0.307595,19.152549,-78.886591,-19.023906
03396,441038,9.704633,0.633477,1.853129,0.040775,-0.046789,0.000943,-0.197761,-0.332913,0.297506,19.222654,-78.912337,-19.071196
03397,441138,9.716298,0.568417,1.819299,0.030349,-0.041207,-0.001248,-0.194105,-0.326580,0.289315,19.287705,-78.934640,-19.119422
03398,441238,9.661459,0.605169,1.798736,0.018512,-0.041436,-0.001559,-0.189837,-0.318472,0.275203,19.347277,-78.956997,-19.168975
03399,441338,9.680236,0.666940,1.768302,0.015309,-0.046739,0.001207,-0.181177,-0.315135,0.265363,19.402743,-78.982738,-19.216208
03400,441438,9.704950,0.730903,1.653769,0.017917,-0.037168,0.007817,-0.175443,-0.307122,0.252750,19.432182,-79.004560,-19.235395
03401,441538,9.692712,0.774716,1.626815,0.016802,-0.027528,0.013299,-0.170222,-0.297655,0.241214,19.436346,-79.022221,-19.229479
03402,441638,9.638086,0.775927,1.645074,0.020032,-0.033447,0.015929,-0.163530,-0.290751,0.230550,19.440867,-79.043582,-19.222034
03403,441738,9.643730,0.736221,1.714067,0.023981,-0.042713,0.017809,-0.159249,-0.280626,0.216040,19.451552,-79.070309,-19.218557
03404,441838,9.641151,0.701611,1.737497,0.024864,-0.045720,0.018736,-0.153043,-0.272195,0.204953,19.463149,-79.098838,-19.215491
03405,441938,9.631220,0.688340,1.727429,0.020234,-0.041822,0.015477,-0.143874,-0.262389,0.195442,19.477409,-79.124639,-19.217835
03406,442038,9.598657,0.675735,1.697183,0.012512,-0.030417,0.012572,-0.135135,-0.255871,0.181755,19.484104,-79.143725,-19.216980
03407,442138,9.565164,0.640817,1.648844,0.007865,-0.028990,0.015165,-0.125978,-0.247583,0.172668,19.479407,-79.162538,-19.207234
03408,442238,9.545436,0.630132,1.665354,0.008060,-0.030445,0.014701,-0.118780,-0.241660,0.161454,19.477568,-79.182049,-19.200285
03409,442338,9.548009,0.616346,1.683097,0.013128,-0.033145,0.015838,-0.107605,-0.234827,0.150792,19.478107,-79.203236,-19.192802
03410,442438,9.645168,0.619417,1.724542,0.021196,-0.033723,0.016893,-0.099962,-0.227062,0.142679,19.480844,-79.224938,-19.182851
03411,442538,9.649130,0.612148,1.708624,0.024278,-0.029275,0.022045,-0.091905,-0.220021,0.139039,19.466209,-79.245222,-19.153420
03412,442638,9.639650,0.635722,1.691157,0.016673,-0.028575,0.021307,-0.078774,-0.212818,0.130402,19.448535,-79.264986,-19.125333
03413,442738,9.667507,0.623842,1.634380,0.002288,-0.032105,0.020081,-0.064644,-0.204136,0.121842,19.429587,-79.286424,-19.104339
03414,442838,9.677693,0.635016,1.580414,-0.016196,-0.032917,0.018302,-0.052565,-0.197061,0.116203,19.405875,-79.307963,-19.089277
03415,442938,9.679361,0.634674,1.555777,-0.030398,-0.029699,0.019669,-0.034021,-0.191110,0.111016,19.366781,-79.328025,-19.066841
03416,443038,9.674509,0.648703,1.566666,-0.039588,-0.036924,0.021514,-0.013494,-0.184716,0.106354,19.324295,-79.352343,-19.046313
03417,443138,9.684011,0.676191,1.616357,-0.039268,-0.037742,0.023345,0.003017,-0.175366,0.103844,19.277408,-79.377448,-19.021118
03418,443238,9.705013,0.676864,1.651478,-0.029065,-0.033463,0.027360,0.026026,-0.168538,0.099708,19.220289,-79.400995,-18.979564
03419,443338,9.713045,0.631598,1.637919,-0.018746,-0.027710,0.029169,0.053906,-0.161579,0.101597,19.157838,-79.421762,-18.926573
03420,443438,9.660188,0.561589,1.663602,-0.019222,-0.022335,0.028536,0.074802,-0.155032,0.103958,19.091317,-79.439492,-18.869725
03421,443538,9.609106,0.490329,1.644269,-0.027929,-0.019589,0.025296,0.095575,-0.150293,0.112741,19.026261,-79.455118,-18.819450
03422,443638,9.608451,0.487415,1.646517,-0.037790,-0.021181,0.022714,0.122342,-0.146099,0.120501,18.964492,-79.471116,-18.778273
03423,443738,9.623319,0.528184,1.617590,-0.044397,-0.018600,0.022062,0.142136,-0.141794,0.128258,18.898100,-79.485588,-18.736250
03424,443838,9.629855,0.620486,1.607694,-0.043644,-0.012187,0.021278,0.162845,-0.141683,0.139810,18.827890,-79.496430,-18.689905
03425,443938,9.640455,0.669167,1.631253,-0.042252,-0.012840,0.021958,0.182528,-0.142127,0.152837,18.757027,-79.507742,-18.642082
03426,444038,9.683838,0.757192,1.660694,-0.034595,-0.007980,0.024020,0.195164,-0.142654,0.169860,18.679572,-79.516785,-18.583087
03427,444138,9.680303,0.774224,1.624660,-0.027414,0.000731,0.026767,0.204855,-0.144008,0.184332,18.589460,-79.521586,-18.507027
03428,444238,9.629207,0.735525,1.582877,-0.030079,-0.009635,0.024320,0.214068,-0.144809,0.197829,18.515164,-79.531553,-18.448599
03429,444338,9.627212,0.655408,1.600899,-0.033399,-0.029363,0.019557,0.219815,-0.149467,0.209624,18.472283,-79.551364,-18.424048
03430,444438,9.627880,0.484555,1.653823,-0.034322,-0.041800,0.010468,0.221739,-0.146703,0.213775,18.467841,-79.576283,-18.439129
03431,444538,9.582622,0.363333,1.601741,-0.054980,-0.039086,0.005088,0.225593,-0.147103,0.220773,18.464802,-79.598754,-18.467679
03432,444638,9.558906,0.336990,1.591014,-0.060989,-0.036716,0.004738,0.228045,-0.147737,0.222748,18.457039,-79.619877,-18.494938
03433,444738,9.576638,0.423329,1.567776,-0.049764,-0.019493,0.007438,0.230984,-0.144939,0.225900,18.430635,-79.632133,-18.496713
03434,444838,9.558953,0.505573,1.505492,-0.030984,-0.006178,0.014942,0.231930,-0.146570,0.228323,18.379475,-79.638511,-18.462385
03435,444938,9.585821,0.552497,1.535356,-0.018523,-0.008415,0.021570,0.234479,-0.145469,0.225376,18.317884,-79.647298,-18.410196
03436,445038,9.641197,0.576215,1.604948,-0.008294,-0.021449,0.028064,0.233010,-0.141411,0.224579,18.255521,-79.664334,-18.351268
03437,445138,9.722350,0.592487,1.614791,-0.000667,-0.039902,0.029215,0.235571,-0.138293,0.221234,18.212044,-79.691609,-18.307098
03438,445238,9.718488,0.566774,1.633339,0.001567,-0.056963,0.026401,0.236110,-0.136211,0.219336,18.194889,-79.727664,-18.288383
03439,445338,9.725547,0.554252,1.648461,0.004726,-0.069613,0.020782,0.236137,-0.131181,0.218591,18.208896,-79.769599,-18.299500
03440,445438,9.718856,0.559910,1.660372,0.013183,-0.068025,0.012030,0.236144,-0.132652,0.218015,18.252778,-79.809101,-18.336047
03441,445538,9.668710,0.558198,1.623341,0.020619,-0.048930,0.005672,0.235147,-0.128176,0.218743,18.301376,-79.837066,-18.373053
03442,445638,9.620925,0.533241,1.599942,0.020824,-0.027255,-0.000373,0.237517,-0.128030,0.225266,18.346859,-79.852149,-18.406772
03443,445738,9.570068,0.479941,1.555098,0.009752,-0.013578,-0.001629,0.238918,-0.128295,0.230265,18.376104,-79.859566,-18.430444
03444,445838,9.542546,0.446583,1.539368,0.008458,-0.015454,-0.001165,0.238807,-0.128584,0.236262,18.405125,-79.868087,-18.454646
03445,445938,9.580385,0.435772,1.577363,0.009505,-0.026610,0.004498,0.241194,-0.129386,0.241736,18.428858,-79.883698,-18.472872
03446,446038,9.593989,0.476923,1.611291,0.010878,-0.035764,0.009737,0.243954,-0.133001,0.253580,18.446765,-79.905233,-18.484383
03447,446138,9.644465,0.486133,1.652034,0.008316,-0.043797,0.014825,0.245369,-0.135709,0.257452,18.455893,-79.932056,-18.488472
03448,446238,9.690637,0.508881,1.682734,0.008270,-0.042504,0.018657,0.246625,-0.139822,0.269769,18.451938,-79.958871,-18.479302
03449,446338,9.746889,0.562449,1.640342,0.012104,-0.038722,0.023892,0.249344,-0.145526,0.283510,18.430157,-79.984578,-18.449798
03450,446438,9.766053,0.569444,1.614814,0.015175,-0.035397,0.022663,0.250558,-0.146770,0.298480,18.410386,-80.008255,-18.420552
03451,446538,9.749140,0.520997,1.567623,0.013660,-0.026969,0.017639,0.252831,-0.154315,0.309121,18.396501,-80.026440,-18.398165
03452,446638,9.677628,0.472683,1.583007,0.016105,-0.032536,0.013598,0.254991,-0.158187,0.326462,18.402196,-80.046922,-18.394243
03453,446738,9.672544,0.469580,1.538127,0.019011,-0.037546,0.010246,0.254723,-0.162847,0.340253,18.425143,-80.069523,-18.406148
03454,446838,9.631040,0.508669,1.531193,0.021856,-0.038136,0.005650,0.254988,-0.163457,0.352749,18.464712,-80.091613,-18.433274
03455,446938,9.590641,0.516377,1.556294,0.022299,-0.049422,0.004406,0.259252,-0.167071,0.364093,18.520344,-80.119605,-18.476447
03456,447038,9.611648,0.528320,1.598353,0.028748,-0.062519,0.009072,0.258548,-0.168092,0.375063,18.579122,-80.155555,-18.519060
03457,447138,9.669950,0.559180,1.632513,0.030128,-0.061965,0.011407,0.257869,-0.171032,0.384433,18.631148,-80.191623,-18.554011
03458,447238,9.676686,0.561856,1.603714,0.030838,-0.050983,0.014498,0.258118,-0.170196,0.398003,18.662474,-80.222290,-18.567540
03459,447338,9.675914,0.524459,1.552456,0.026395,-0.039493,0.014761,0.259422,-0.167736,0.408652,18.678292,-80.246769,-18.567915
03460,447438,9.643844,0.489433,1.501562,0.019195,-0.036577,0.015813,0.259267,-0.166152,0.417250,18.683567,-80.269860,-18.561782
03461,447538,9.614359,0.472235,1.485609,0.014128,-0.042351,0.014967,0.259634,-0.167494,0.424197,18.694810,-80.295930,-18.564652
03462,447638,9.590513,0.423703,1.494680,0.010552,-0.052528,0.017243,0.257475,-0.166899,0.433244,18.707752,-80.327945,-18.571331
03463,447738,9.619380,0.453913,1.512997,0.008873,-0.066026,0.018876,0.257272,-0.166433,0.444290,18.729190,-80.367585,-18.587606
03464,447838,9.653047,0.505954,1.547228,0.010347,-0.071350,0.025254,0.257619,-0.167822,0.452237,18.736951,-80.411287,-18.589152
03465,447938,9.695239,0.550987,1.577904,0.020151,-0.072454,0.028210,0.253409,-0.169333,0.464180,18.742054,-80.456131,-18.582305
03466,448038,9.674669,0.577136,1.573426,0.027438,-0.067227,0.033380,0.252673,-0.172917,0.476522,18.728829,-80.499090,-18.552640
03467,448138,9.667600,0.561226,1.554865,0.032019,-0.064606,0.033269,0.245933,-0.175482,0.490413,18.715513,-80.540605,-18.520223
03468,448238,9.664749,0.537354,1.534133,0.036689,-0.066077,0.032463,0.242709,-0.177531,0.502831,18.708946,-80.582769,-18.491939
03469,448338,9.688960,0.537859,1.517228,0.035456,-0.066727,0.032412,0.236402,-0.180272,0.520221,18.702407,-80.625276,-18.464401
03470,448438,9.699315,0.544208,1.487487,0.029526,-0.061169,0.031949,0.230060,-0.187071,0.538907,18.687636,-80.664680,-18.431967
03471,448538,9.690363,0.603052,1.460153,0.005366,-0.054902,0.027331,0.221176,-0.191483,0.560718,18.667099,-80.699835,-18.407715
03472,448638,9.641650,0.594817,1.385436,-0.001585,-0.045276,0.027496,0.212255,-0.201449,0.583749,18.631066,-80.729794,-18.371796
03473,448738,9.601540,0.555755,1.334295,-0.002955,-0.051390,0.028996,0.195791,-0.204040,0.611656,18.595886,-80.763346,-18.337537
03474,448838,9.609025,0.530618,1.339392,-0.003004,-0.061363,0.033329,0.177252,-0.211275,0.643334,18.557133,-80.803104,-18.299691
03475,448938,9.666723,0.520477,1.364653,0.001414,-0.071968,0.033064,0.156152,-0.221629,0.678356,18.533464,-80.848573,-18.274564
03476,449038,9.656521,0.504915,1.424154,0.002124,-0.084656,0.033184,0.131654,-0.229220,0.709006,18.523965,-80.900957,-18.263378
03477,449138,9.642851,0.467465,1.469006,0.002301,-0.097774,0.033415,0.115181,-0.236793,0.736660,18.528656,-80.960509,-18.266464
03478,449238,9.666761,0.434369,1.517640,-0.002830,-0.105232,0.030634,0.101882,-0.244928,0.754268,18.548599,-81.023606,-18.287972
03479,449338,9.745790,0.424938,1.517886,-0.001751,-0.096215,0.029105,0.089090,-0.247590,0.772156,18.564257,-81.081524,-18.304515
03480,449438,9.773996,0.468577,1.499918,0.001867,-0.068637,0.030386,0.077250,-0.254350,0.791839,18.545502,-81.124695,-18.284128
03481,449538,9.693418,0.478323,1.416607,0.007335,-0.050652,0.030803,0.063404,-0.258138,0.812674,18.507190,-81.158171,-18.240778
03482,449638,9.610517,0.493595,1.298734,0.010661,-0.060935,0.030536,0.053047,-0.260984,0.833561,18.483471,-81.197184,-18.210272
03483,449738,9.607237,0.506350,1.361606,0.012275,-0.083278,0.032086,0.042304,-0.263534,0.848451,18.481298,-81.248619,-18.200635
03484,449838,9.601708,0.503616,1.372345,0.002646,-0.099654,0.031321,0.038514,-0.267238,0.864291,18.495693,-81.308815,-18.213341
03485,449938,9.633061,0.511531,1.396407,-0.006657,-0.107249,0.031502,0.036777,-0.268339,0.877260,18.513392,-81.373169,-18.234777
03486,450038,9.715378,0.546469,1.388275,-0.012105,-0.093095,0.033320,0.031983,-0.271055,0.893651,18.504605,-81.430163,-18.232575
03487,450138,9.707080,0.616685,1.327207,-0.016798,-0.069545,0.033359,0.033792,-0.269576,0.903749,18.464371,-81.474368,-18.201286
03488,450238,9.687992,0.643623,1.378782,-0.027714,-0.060258,0.030625,0.029564,-0.270637,0.916717,18.416208,-81.513024,-18.168298
03489,450338,9.642282,0.629065,1.356954,-0.029207,-0.069897,0.028069,0.030904,-0.269077,0.925316,18.387927,-81.556454,-18.156272
03490,450438,9.641321,0.588452,1.384330,-0.024291,-0.084078,0.025085,0.032737,-0.270515,0.933763,18.390628,-81.607054,-18.172713
03491,450538,9.673271,0.530500,1.368372,-0.018354,-0.098643,0.024874,0.036068,-0.274443,0.941583,18.415631,-81.665533,-18.208253
03492,450638,9.694342,0.491487,1.355240,-0.010370,-0.110022,0.022305,0.045953,-0.271330,0.946262,18.469454,-81.729726,-18.268286
03493,450738,9.675381,0.431253,1.326096,-0.014516,-0.115363,0.021753,0.053267,-0.271360,0.954786,18.530606,-81.796713,-18.338117
03494,450838,9.699484,0.431595,1.300243,-0.029412,-0.113219,0.020912,0.057151,-0.271190,0.960311,18.584721,-81.862373,-18.409451
03495,450938,9.748159,0.466327,1.278416,-0.058012,-0.098704,0.024333,0.062488,-0.273133,0.967733,18.591598,-81.920770,-18.449610
03496,451038,9.707532,0.495749,1.249242,-0.089918,-0.073377,0.027593,0.066396,-0.274883,0.971657,18.535136,-81.966008,-18.444255
03497,451138,9.646299,0.567448,1.182719,-0.116304,-0.057730,0.031442,0.070289,-0.279647,0.975927,18.428056,-82.003443,-18.403045
03498,451238,9.657626,0.734387,1.135698,-0.138348,-0.048000,0.034114,0.073613,-0.282603,0.984298,18.284739,-82.036057,-18.337986
03499,451338,9.671177,0.824513,1.124535,-0.135766,-0.054283,0.031609,0.078073,-0.285214,0.985172,18.159968,-82.071621,-18.290146
03500,451438,9.711485,0.924326,1.183446,-0.126804,-0.071701,0.026351,0.081505,-0.284915,0.988197,18.082675,-82.115719,-18.285037
03501,451538,9.768319,0.858923,1.262448,-0.120281,-0.082758,0.023803,0.082914,-0.291110,0.991892,18.033077,-82.165386,-18.304092
03502,451638,9.780574,0.683173,1.348925,-0.121389,-0.086368,0.017552,0.084847,-0.293279,0.994790,18.012274,-82.215910,-18.352838
03503,451738,9.716741,0.513491,1.375925,-0.126847,-0.084141,0.009911,0.087785,-0.295938,0.997163,18.016262,-82.263864,-18.429750
03504,451838,9.687339,0.348545,1.428669,-0.147436,-0.084088,-0.000504,0.088721,-0.293133,1.000814,18.050853,-82.309937,-18.549442
03505,451938,9.680949,0.283239,1.323813,-0.161077,-0.071586,-0.008214,0.089141,-0.295327,1.004711,18.093173,-82.347818,-18.684816
03506,452038,9.619968,0.369850,1.265727,-0.171091,-0.068324,-0.009222,0.093469,-0.299271,1.012531,18.130359,-82.383730,-18.820789
03507,452138,9.597163,0.475760,1.180597,-0.176722,-0.058040,-0.007017,0.088367,-0.304463,1.018273,18.142301,-82.414427,-18.934536
03508,452238,9.565502,0.549253,1.165743,-0.178418,-0.056956,-0.003870,0.086121,-0.306576,1.031691,18.139426,-82.445095,-19.034301
03509,452338,9.580201,0.519609,1.222569,-0.179502,-0.077575,0.007549,0.075882,-0.310604,1.046005,18.117167,-82.489028,-19.115127
03510,452438,9.648559,0.473528,1.347234,-0.182844,-0.104709,0.017432,0.064633,-0.312174,1.061444,18.089214,-82.549499,-19.192127
03511,452538,9.779140,0.414304,1.436188,-0.189786,-0.119933,0.024764,0.054797,-0.317945,1.080680,18.047774,-82.619567,-19.259526
03512,452638,9.880229,0.352919,1.451527,-0.191772,-0.115500,0.024971,0.044417,-0.323330,1.102439,17.998415,-82.687260,-19.320079
03513,452738,9.937642,0.272037,1.405460,-0.190628,-0.109136,0.020081,0.028577,-0.328083,1.123223,17.961879,-82.750623,-19.392897
03514,452838,9.976360,0.214244,1.338382,-0.178986,-0.098473,0.009016,0.019791,-0.329764,1.140163,17.965163,-82.806220,-19.499128
03515,452938,9.921325,0.125712,1.223928,-0.163368,-0.081376,-0.005531,0.007927,-0.334105,1.161473,18.017258,-82.849920,-19.645537
03516,453038,9.822772,-0.007240,1.141578,-0.148543,-0.055839,-0.017811,0.001071,-0.339449,1.181235,18.096128,-82.877511,-19.810379
03517,453138,9.624152,-0.071300,1.143477,-0.123274,-0.047066,-0.026538,-0.010245,-0.342184,1.200122,18.215888,-82.898734,-20.001851
03518,453238,9.501854,-0.142130,1.171893,-0.093562,-0.057809,-0.029812,-0.019135,-0.345126,1.222509,18.383534,-82.925155,-20.224438
03519,453338,9.516962,-0.110464,1.232030,-0.062768,-0.081142,-0.024456,-0.021428,-0.347360,1.238426,18.581203,-82.965141,-20.459507
03520,453438,9.677359,0.033876,1.320891,-0.031675,-0.096219,-0.015713,-0.028257,-0.347674,1.257442,18.783177,-83.014813,-20.680957
03521,453538,9.796452,0.187320,1.405379,-0.009038,-0.102822,-0.004229,-0.027587,-0.349031,1.274910,18.960100,-83.070100,-20.864089
03522,453638,9.786631,0.282516,1.365652,0.000630,-0.100908,0.001139,-0.024857,-0.348258,1.288982,19.118369,-83.125285,-21.022835
03523,453738,9.797924,0.289936,1.356745,0.002957,-0.080828,0.006830,-0.025060,-0.342833,1.300782,19.223096,-83.170627,-21.126297
03524,453838,9.760063,0.299724,1.291260,-0.004072,-0.051251,0.012970,-0.022761,-0.340887,1.311406,19.250261,-83.201110,-21.155698
03525,453938,9.683383,0.324951,1.159142,-0.002332,-0.026207,0.009612,-0.020920,-0.337841,1.320081,19.254104,-83.217411,-21.160609
03526,454038,9.620026,0.370481,0.996396,0.000075,-0.024096,0.001320,-0.019578,-0.334786,1.328756,19.293776,-83.231003,-21.200214
03527,454138,9.604305,0.454860,0.877254,-0.002325,-0.045679,-0.001924,-0.016634,-0.329000,1.332060,19.381703,-83.255646,-21.289791
03528,454238,9.631400,0.567518,0.862717,-0.005162,-0.077057,-0.002527,-0.013180,-0.321203,1.334967,19.522450,-83.297108,-21.434176
03529,454338,9.671548,0.628037,0.984314,0.005349,-0.111384,-0.001573,-0.013197,-0.315297,1.336771,19.723477,-83.357229,-21.633163
03530,454438,9.749102,0.610928,1.132368,0.023155,-0.131497,-0.003019,-0.012661,-0.309254,1.335577,19.979289,-83.427812,-21.876995
03531,454538,9.763629,0.508639,1.279518,0.044187,-0.139759,-0.003530,-0.013647,-0.303259,1.335881,20.269425,-83.502600,-22.143204
03532,454638,9.772696,0.417568,1.330251,0.053154,-0.138862,-0.006313,-0.013135,-0.295794,1.336263,20.582839,-83.576185,-22.427629
03533,454738,9.802247,0.310432,1.319323,0.049656,-0.133841,-0.005915,-0.011583,-0.284262,1.334848,20.889993,-83.646981,-22.707733
03534,454838,9.892940,0.283915,1.218623,0.044438,-0.112355,-0.001512,-0.012022,-0.277158,1.332705,21.139037,-83.707035,-22.932351
03535,454938,9.891833,0.253378,1.109521,0.037886,-0.078354,0.005369,-0.009923,-0.268977,1.328114,21.290472,-83.750267,-23.062532
03536,455038,9.763098,0.289471,0.984366,0.024489,-0.046372,0.011007,-0.012248,-0.259584,1.320573,21.347165,-83.777578,-23.105125
03537,455138,9.702405,0.313531,0.922208,0.007448,-0.043641,0.013633,-0.012150,-0.251396,1.316482,21.376341,-83.803979,-23.129863
03538,455238,9.642492,0.391724,0.935500,-0.002956,-0.070487,0.015981,-0.015917,-0.243330,1.305866,21.440210,-83.845190,-23.195490
03539,455338,9.580599,0.512902,1.029781,-0.012048,-0.112181,0.017664,-0.017260,-0.235970,1.298724,21.573386,-83.908965,-23.336049
03540,455438,9.639576,0.595105,1.193647,-0.018674,-0.141680,0.020180,-0.019079,-0.227059,1.290659,21.752321,-83.988935,-23.526411
03541,455538,9.743650,0.627465,1.249183,-0.023464,-0.144038,0.022297,-0.018016,-0.220951,1.287965,21.927512,-84.070540,-23.715730
03542,455638,9.799093,0.588222,1.150978,-0.026431,-0.124092,0.021906,-0.017825,-0.212522,1.278875,22.066192,-84.141406,-23.870015
03543,455738,9.847178,0.484278,1.028853,-0.034450,-0.106309,0.025149,-0.021172,-0.206649,1.272156,22.148958,-84.203499,-23.972692
03544,455838,9.847579,0.416370,0.951482,-0.037710,-0.101569,0.026572,-0.020549,-0.199393,1.266514,22.214112,-84.263371,-24.059532
03545,455938,9.837297,0.342744,0.913249,-0.044247,-0.103742,0.027146,-0.021876,-0.188521,1.259050,22.278787,-84.324510,-24.149647
03546,456038,9.848784,0.268013,0.919860,-0.055879,-0.105387,0.031297,-0.016605,-0.181898,1.244362,22.319698,-84.387416,-24.222576
03547,456138,9.802411,0.210409,0.882660,-0.063764,-0.104664,0.033187,-0.016484,-0.176129,1.238644,22.345400,-84.450348,-24.284763
03548,456238,9.733914,0.216553,0.834468,-0.062715,-0.101275,0.041688,-0.019798,-0.167692,1.230553,22.318111,-84.513336,-24.293107
03549,456338,9.669479,0.222800,0.876491,-0.045857,-0.092693,0.047412,-0.021216,-0.161023,1.227384,22.248706,-84.573019,-24.249448
03550,456438,9.601947,0.235735,0.864627,-0.018482,-0.087939,0.052119,-0.025572,-0.152193,1.221817,22.156277,-84.631194,-24.166917
03551,456538,9.674218,0.220903,0.888808,0.007329,-0.092835,0.053375,-0.025501,-0.143579,1.219250,22.080945,-84.692228,-24.086718
03552,456638,9.748842,0.174040,0.909775,0.027262,-0.105540,0.057206,-0.028917,-0.134909,1.216682,22.022810,-84.760824,-24.012336
03553,456738,9.811652,0.132392,0.888455,0.033921,-0.117395,0.063383,-0.033912,-0.126931,1.218586,21.958498,-84.837037,-23.927940
03554,456838,9.846200,0.118643,0.930177,0.025680,-0.122478,0.071817,-0.031344,-0.119827,1.215444,21.848944,-84.917744,-23.802879
03555,456938,9.884076,0.169734,0.963083,0.009310,-0.124608,0.080912,-0.032792,-0.109268,1.214478,21.675924,-85.001486,-23.623546
03556,457038,9.911894,0.230379,0.955861,-0.002754,-0.112899,0.086675,-0.029311,-0.102396,1.215834,21.425671,-85.080142,-23.373654
03557,457138,9.916676,0.350625,0.929923,-0.010892,-0.106638,0.089596,-0.024310,-0.091016,1.216420,21.128903,-85.155956,-23.081784
03558,457238,9.903846,0.454077,0.892331,-0.016342,-0.107961,0.092722,-0.019775,-0.083019,1.214828,20.802823,-85.232979,-22.763657
03559,457338,9.916031,0.498680,0.850960,-0.016428,-0.105738,0.090592,-0.008267,-0.075133,1.213239,20.474674,-85.308225,-22.443530
03560,457438,9.835270,0.446972,0.852264,-0.006446,-0.109851,0.088954,0.001724,-0.064306,1.213301,20.162742,-85.385204,-22.133963
03561,457538,9.798982,0.412082,0.826743,0.001598,-0.112898,0.085545,0.008780,-0.054782,1.210288,19.875575,-85.463019,-21.844644
03562,457638,9.779364,0.304068,0.818260,0.002146,-0.103286,0.076967,0.016756,-0.045964,1.211247,19.614347,-85.533878,-21.581056
03563,457738,9.790766,0.217095,0.774996,-0.001542,-0.098803,0.068119,0.020832,-0.031410,1.208487,19.393637,-85.600535,-21.360254
03564,457838,9.756191,0.189281,0.699446,-0.005127,-0.096806,0.057412,0.015811,-0.022009,1.211967,19.235528,-85.664028,-21.204318
03565,457938,9.803108,0.169771,0.657701,-0.007382,-0.094625,0.050117,0.016846,-0.011016,1.211526,19.118819,-85.724939,-21.091213
03566,458038,9.826113,0.231738,0.634481,-0.016095,-0.094253,0.050370,0.006881,0.003519,1.213759,18.990970,-85.785680,-20.971951
03567,458138,9.797771,0.290187,0.628431,-0.034207,-0.095281,0.047881,-0.002043,0.016663,1.213417,18.870283,-85.846497,-20.870283
03568,458238,9.762588,0.356835,0.649484,-0.057807,-0.103552,0.049125,-0.014045,0.027147,1.217446,18.744570,-85.912013,-20.777136
03569,458338,9.761254,0.389732,0.689746,-0.082066,-0.105988,0.058142,-0.033045,0.039164,1.223047,18.537999,-85.980483,-20.616863
03570,458438,9.732408,0.420021,0.695250,-0.102525,-0.099068,0.062477,-0.051441,0.053431,1.223253,18.261138,-86.045924,-20.397884
03571,458538,9.703149,0.433358,0.670524,-0.116634,-0.095759,0.063487,-0.068866,0.064147,1.224281,17.951139,-86.109662,-20.153800
03572,458638,9.683701,0.426893,0.656751,-0.121537,-0.091608,0.060325,-0.089767,0.075938,1.224859,17.644152,-86.170490,-19.915559
03573,458738,9.704819,0.358801,0.631081,-0.118719,-0.085140,0.053576,-0.111641,0.090284,1.224564,17.369236,-86.226537,-19.707851
03574,458838,9.718361,0.207695,0.659348,-0.115418,-0.083427,0.046066,-0.123872,0.100478,1.214047,17.147766,-86.280310,-19.551821
03575,458938,9.791373,0.057351,0.643578,-0.110993,-0.084019,0.045763,-0.128086,0.111164,1.201059,16.927414,-86.334317,-19.394386
03576,459038,9.823826,-0.049137,0.636957,-0.103934,-0.088490,0.050124,-0.125246,0.125419,1.184253,16.679176,-86.391457,-19.204976
03577,459138,9.869364,-0.023314,0.676389,-0.097790,-0.093853,0.055399,-0.118176,0.136276,1.153749,16.394676,-86.452347,-18.975728
03578,459238,9.906038,-0.007183,0.715465,-0.102142,-0.090545,0.061434,-0.102525,0.148284,1.117302,16.035497,-86.512300,-18.674181
03579,459338,9.933344,-0.005699,0.677924,-0.114611,-0.085324,0.071257,-0.082781,0.158525,1.074756,15.553597,-86.570769,-18.256873
03580,459438,9.920380,0.048630,0.651811,-0.127796,-0.078564,0.080894,-0.058902,0.164129,1.023462,14.940929,-86.626710,-17.716165
03581,459538,9.818285,0.084020,0.607696,-0.137581,-0.072810,0.090996,-0.032992,0.170795,0.970219,14.192446,-86.680530,-17.045058
03582,459638,9.724796,0.111472,0.562144,-0.136964,-0.075153,0.097368,-0.007392,0.173490,0.906251,13.364250,-86.735981,-16.293791
03583,459738,9.653203,0.101752,0.596181,-0.128103,-0.076030,0.096893,0.018827,0.176989,0.835812,12.520725,-86.791224,-15.522128
03584,459838,9.680587,0.070885,0.635333,-0.114750,-0.076599,0.096670,0.038165,0.174386,0.759543,11.660255,-86.846104,-14.725875
03585,459938,9.765551,0.054875,0.659658,-0.095344,-0.079273,0.092966,0.054121,0.169138,0.677122,10.825640,-86.901412,-13.944425
03586,460038,9.899784,0.000492,0.688642,-0.083003,-0.080951,0.085662,0.062119,0.159581,0.593470,10.049572,-86.956300,-13.214570
03587,460138,10.000210,-0.094975,0.676912,-0.069108,-0.080905,0.080802,0.057613,0.148108,0.512213,9.306494,-87.010170,-12.509823
03588,460238,10.056459,-0.228001,0.651687,-0.054838,-0.079990,0.080147,0.049541,0.133509,0.434800,8.550825,-87.062972,-11.784328
03589,460338,10.026038,-0.336392,0.667882,-0.042970,-0.078942,0.083467,0.032819,0.116095,0.366754,7.735875,-87.114929,-10.992720
03590,460438,10.008693,-0.331793,0.678840,-0.020700,-0.070491,0.095371,0.012444,0.099299,0.307753,6.756013,-87.162305,-10.023268
03591,460538,9.912190,-0.267688,0.633842,0.001108,-0.067498,0.096835,-0.012033,0.084247,0.255351,5.735213,-87.207215,-9.000371
03592,460638,9.790755,-0.197002,0.567450,0.022432,-0.058120,0.102053,-0.040209,0.069692,0.214494,4.622515,-87.246099,-7.873283
03593,460738,9.720339,-0.128734,0.530377,0.038286,-0.065673,0.105488,-0.065475,0.052406,0.177509,3.451344,-87.288343,-6.678605
03594,460838,9.661718,-0.113481,0.554395,0.051524,-0.083989,0.118337,-0.095860,0.041291,0.148850,2.101331,-87.340163,-5.297348
03595,460938,9.644638,0.004253,0.587696,0.057026,-0.108961,0.113682,-0.119912,0.022760,0.126835,0.763689,-87.404687,-3.925383
03596,461038,9.782111,0.012512,0.725452,0.067848,-0.121557,0.110824,-0.146498,0.011100,0.108173,-0.600653,-87.474920,-2.520558
03597,461138,9.872747,0.003050,0.756056,0.073504,-0.110666,0.115089,-0.170162,-0.001274,0.092985,-2.091545,-87.537267,-0.985887
03598,461238,9.895154,0.005651,0.612876,0.074170,-0.078172,0.120250,-0.191896,-0.012853,0.081347,-3.700943,-87.579037,0.667721
03599,461338,9.828945,0.056296,0.489148,0.072216,-0.049713,0.116176,-0.214709,-0.023635,0.074259,-5.275197,-87.602758,2.284998
03600,461438,9.722776,0.131095,0.508695,0.080947,-0.037268,0.107956,-0.237482,-0.032827,0.065247,-6.741942,-87.618067,3.799664
03601,461538,9.655311,0.136092,0.570893,0.093185,-0.043851,0.097458,-0.260348,-0.047715,0.060454,-8.088713,-87.636335,5.201260
03602,461638,9.643113,0.128018,0.596021,0.104368,-0.058580,0.087583,-0.281175,-0.062017,0.053188,-9.346872,-87.662476,6.520570
03603,461738,9.685141,0.084208,0.639251,0.117569,-0.067454,0.078602,-0.304561,-0.073483,0.050072,-10.523612,-87.693355,7.765944
03604,461838,9.787260,0.141454,0.587851,0.118705,-0.070127,0.074988,-0.326956,-0.087954,0.046804,-11.688706,-87.725095,9.000296
03605,461938,9.868177,0.197238,0.556722,0.109560,-0.062971,0.065396,-0.342877,-0.098067,0.044266,-12.732426,-87.753031,10.107922
03606,462038,9.932274,0.236734,0.508838,0.097674,-0.048319,0.057058,-0.366331,-0.110698,0.044598,-13.638595,-87.773135,11.071073
03607,462138,9.899267,0.232055,0.438561,0.085838,-0.028515,0.045065,-0.382809,-0.122941,0.044957,-14.322523,-87.783366,11.805033
03608,462238,9.851936,0.112566,0.403351,0.079689,-0.010326,0.032612,-0.397325,-0.130828,0.047545,-14.768283,-87.785020,12.297126
03609,462338,9.819208,-0.033268,0.438081,0.076309,0.001655,0.021791,-0.417338,-0.138676,0.051131,-15.015621,-87.781518,12.588714
03610,462438,9.815250,-0.189244,0.477093,0.073462,0.009395,0.016436,-0.431893,-0.148154,0.055642,-15.157522,-87.774493,12.773151
03611,462538,9.808773,-0.321885,0.510467,0.074385,0.011062,0.015695,-0.448450,-0.157126,0.060678,-15.280981,-87.766638,12.939652
03612,462638,9.805370,-0.443154,0.512575,0.086674,0.005071,0.023612,-0.463514,-0.162160,0.066417,-15.531712,-87.760862,13.240555
03613,462738,9.754855,-0.485700,0.554201,0.104395,-0.008412,0.053698,-0.477056,-0.167146,0.070657,-16.248362,-87.757694,14.017881
03614,462838,9.802044,-0.227212,0.580661,0.131984,-0.030431,0.051357,-0.486728,-0.169519,0.081547,-17.008613,-87.766603,14.854655
03615,462938,9.742699,-0.155898,0.518080,0.153257,-0.038234,0.054093,-0.493340,-0.172742,0.088391,-17.836616,-87.778852,15.771423
03616,463038,9.675404,0.066567,0.549901,0.164187,-0.059949,0.063815,-0.504965,-0.173492,0.097358,-18.909008,-87.800560,16.939027
03617,463138,9.666036,0.299752,0.536247,0.168735,-0.069689,0.064159,-0.514072,-0.174708,0.104801,-20.055742,-87.826587,18.183632
03618,463238,9.683678,0.439897,0.478236,0.169045,-0.072113,0.058063,-0.516742,-0.176621,0.114221,-21.157039,-87.854210,19.382949
03619,463338,9.678993,0.457886,0.478627,0.171046,-0.074242,0.053273,-0.523901,-0.175995,0.124266,-22.230265,-87.883120,20.555323
03620,463438,9.726313,0.375736,0.505074,0.180619,-0.080963,0.047536,-0.532517,-0.175748,0.132285,-23.287411,-87.916039,21.717093
03621,463538,9.790997,0.259083,0.502190,0.193769,-0.084770,0.040697,-0.533639,-0.173578,0.139409,-24.297382,-87.951762,22.839187
03622,463638,9.855434,0.070486,0.505692,0.205701,-0.083062,0.034733,-0.536776,-0.173418,0.147431,-25.237988,-87.987333,23.898697
03623,463738,9.916241,-0.124762,0.493984,0.215552,-0.078097,0.031772,-0.537444,-0.169882,0.157130,-26.128045,-88.020470,24.913254
03624,463838,9.946672,-0.268020,0.498119,0.220302,-0.072747,0.030523,-0.541555,-0.168163,0.164227,-26.987757,-88.050637,25.900147
03625,463938,9.996811,-0.357748,0.492559,0.220331,-0.067045,0.037628,-0.546166,-0.166934,0.171299,-27.937735,-88.075487,26.977349
03626,464038,10.014415,-0.382604,0.470920,0.222079,-0.057460,0.055392,-0.551240,-0.167096,0.176296,-29.100158,-88.089973,28.268097
03627,464138,10.018198,-0.325247,0.478235,0.209443,-0.047516,0.075403,-0.551394,-0.165014,0.184920,-30.498734,-88.092843,29.787872
03628,464238,9.935398,-0.203559,0.465740,0.193856,-0.041093,0.094012,-0.560904,-0.164486,0.187441,-32.121999,-88.085690,31.523526
03629,464338,9.830477,-0.098640,0.465103,0.177867,-0.039043,0.111757,-0.560542,-0.162862,0.195040,-33.971780,-88.070255,33.476671
03630,464438,9.730843,0.017517,0.464172,0.173887,-0.039674,0.118589,-0.567096,-0.164945,0.198935,-35.890953,-88.050729,35.496996
03631,464538,9.668608,0.173453,0.459340,0.171079,-0.036014,0.116575,-0.567165,-0.162148,0.203086,-37.706416,-88.027999,37.411979
03632,464638,9.631032,0.152226,0.436556,0.191426,-0.037647,0.109305,-0.573234,-0.161298,0.208133,-39.390528,-88.006609,39.207238
03633,464738,9.670145,0.148360,0.490306,0.209014,-0.033870,0.096100,-0.574274,-0.159908,0.210708,-40.823255,-87.986761,40.761077
03634,464838,9.721321,0.144134,0.502177,0.219954,-0.026329,0.080594,-0.577834,-0.159547,0.214731,-41.952191,-87.968338,42.017242
03635,464938,9.783879,0.110282,0.493465,0.225532,-0.024869,0.066803,-0.581388,-0.160657,0.218177,-42.878398,-87.953838,43.073773
03636,465038,9.859445,0.148694,0.462070,0.215644,-0.019382,0.062381,-0.583432,-0.158278,0.221302,-43.684552,-87.938223,44.004529
03637,465138,9.920360,0.176832,0.391922,0.197372,-0.020039,0.063759,-0.583516,-0.158495,0.225801,-44.510504,-87.921859,44.944647
03638,465238,9.981397,0.168829,0.340925,0.172262,-0.020607,0.073871,-0.585565,-0.159106,0.228773,-45.453969,-87.901113,45.987984
03639,465338,10.017700,0.183509,0.291528,0.153373,-0.021154,0.083640,-0.588584,-0.155169,0.230975,-46.498466,-87.875908,47.121624
03640,465438,10.014442,0.204391,0.328799,0.143380,-0.019963,0.091951,-0.587643,-0.154831,0.233999,-47.594619,-87.845984,48.301264
03641,465538,9.928489,0.204945,0.385887,0.141329,-0.016009,0.096150,-0.591699,-0.152968,0.238098,-48.657180,-87.811937,49.446155
03642,465638,9.850766,0.170560,0.458124,0.139757,-0.014909,0.093493,-0.593206,-0.154961,0.238496,-49.648488,-87.777863,50.518881
03643,465738,9.790464,0.118413,0.495175,0.143314,-0.011437,0.084640,-0.591748,-0.154583,0.240521,-50.485338,-87.745751,51.439110
03644,465838,9.760790,0.089408,0.530390,0.145208,0.001086,0.070028,-0.593753,-0.151112,0.241698,-51.024544,-87.715157,52.062580
03645,465938,9.727942,0.068870,0.531143,0.141287,0.012548,0.056796,-0.594240,-0.150084,0.241249,-51.306451,-87.686178,52.426323
03646,466038,9.722931,0.056040,0.543119,0.128727,0.023950,0.043959,-0.594270,-0.151650,0.242672,-51.350386,-87.658819,52.544714
03647,466138,9.713999,0.068314,0.487942,0.111816,0.035916,0.037985,-0.595283,-0.150188,0.243747,-51.220862,-87.629851,52.479818
03648,466238,9.730050,0.148512,0.451224,0.102617,0.038930,0.033875,-0.594333,-0.150325,0.246247,-51.031372,-87.601629,52.349644
03649,466338,9.747847,0.140816,0.417058,0.094150,0.047324,0.032994,-0.592842,-0.152341,0.246145,-50.754814,-87.570748,52.127481
03650,466438,9.696513,0.087269,0.374371,0.083187,0.056092,0.032797,-0.595828,-0.150301,0.246246,-50.398853,-87.536717,51.819564
03651,466538,9.677331,-0.048359,0.426108,0.081498,0.056754,0.028119,-0.592399,-0.151995,0.249170,-50.006677,-87.504420,51.474430
03652,466638,9.686307,-0.203563,0.476258,0.086779,0.057364,0.026909,-0.591363,-0.150420,0.247247,-49.604664,-87.472323,51.122473
03653,466738,9.657378,-0.404269,0.474646,0.082124,0.048695,0.022428,-0.593384,-0.150959,0.248721,-49.261508,-87.445304,50.826749
03654,466838,9.690356,-0.602493,0.498918,0.090635,0.052500,0.020103,-0.588869,-0.148467,0.247350,-48.864366,-87.417773,50.481847
03655,466938,9.698760,-0.730319,0.461460,0.113573,0.075294,0.018058,-0.587857,-0.149929,0.246274,-48.231162,-87.382329,49.913772
03656,467038,9.623401,-0.844954,0.351805,0.134085,0.105421,0.016086,-0.590890,-0.149005,0.248823,-47.312059,-87.335767,49.071219
03657,467138,9.535182,-0.926087,0.338865,0.152447,0.126728,0.015919,-0.589838,-0.148877,0.245825,-46.225482,-87.280233,48.071481
03658,467238,9.437661,-0.993687,0.378719,0.164043,0.134628,0.011939,-0.588399,-0.148547,0.248849,-45.075231,-87.222249,47.014574
03659,467338,9.336180,-1.033082,0.382904,0.170495,0.127932,0.010790,-0.587840,-0.145919,0.245978,-44.011308,-87.166484,46.047722
03660,467438,9.335037,-1.114497,0.462741,0.181078,0.114255,0.010382,-0.587352,-0.146449,0.246452,-43.083803,-87.115737,45.223455
03661,467538,9.413343,-1.167437,0.582847,0.201630,0.102458,0.014595,-0.589813,-0.144843,0.245028,-42.298859,-87.067701,44.553655
03662,467638,9.574839,-1.195997,0.672945,0.224971,0.098456,0.019334,-0.586329,-0.146891,0.244928,-41.592601,-87.019103,43.975976
03663,467738,9.762212,-1.280210,0.779988,0.253763,0.104017,0.026082,-0.587279,-0.146755,0.242429,-40.906474,-86.965187,43.434915
03664,467838,10.007204,-1.376832,0.814955,0.281119,0.118293,0.030617,-0.589296,-0.145301,0.244004,-40.165297,-86.903000,42.854355
03665,467938,10.166839,-1.462258,0.809667,0.305193,0.140625,0.039728,-0.586814,-0.144866,0.244529,-39.362496,-86.827209,42.225815
03666,468038,10.272623,-1.483427,0.804642,0.333808,0.157609,0.044573,-0.588775,-0.142769,0.243131,-38.508435,-86.741600,41.562268
03667,468138,10.360862,-1.401799,0.822676,0.368155,0.173884,0.047571,-0.587751,-0.142713,0.241632,-37.599757,-86.647011,40.863628
03668,468238,10.398477,-1.252767,0.839646,0.403712,0.188123,0.043668,-0.588743,-0.140206,0.241759,-36.604639,-86.546595,40.098705
03669,468338,10.404014,-1.010336,0.914219,0.433814,0.197167,0.038031,-0.591714,-0.140609,0.240733,-35.551596,-86.443087,39.292923
03670,468438,10.370692,-0.666413,0.982579,0.448619,0.192579,0.034307,-0.592706,-0.138101,0.240859,-34.538868,-86.342078,38.535937
03671,468538,10.328179,-0.394594,1.120911,0.455712,0.179874,0.027099,-0.593707,-0.135619,0.241486,-33.578957,-86.248601,37.835871
03672,468638,10.286478,-0.170499,1.259956,0.448767,0.161638,0.016126,-0.593751,-0.134244,0.244061,-32.668879,-86.166578,37.181697
03673,468738,10.128058,0.001103,1.406015,0.441172,0.140276,0.005708,-0.596182,-0.132067,0.241163,-31.816382,-86.097430,36.580830
03674,468838,9.963004,0.144806,1.529938,0.440568,0.114212,-0.000989,-0.595702,-0.132123,0.242163,-31.053442,-86.042452,36.069359
03675,468938,9.759640,0.122163,1.524420,0.439269,0.101175,-0.010503,-0.595656,-0.127045,0.240418,-30.295444,-85.996211,35.562082
03676,469038,9.506681,-0.005048,1.464104,0.446518,0.094415,-0.019041,-0.595646,-0.126523,0.239943,-29.514641,-85.955289,35.036093
03677,469138,9.207994,-0.185646,1.378003,0.459970,0.058488,-0.022369,-0.592702,-0.125694,0.242494,-28.855484,-85.932799,34.639767
03678,469238,8.968627,-0.325405,1.325080,0.475604,0.009660,-0.020314,-0.593741,-0.123806,0.245095,-28.394481,-85.934019,34.451070
03679,469338,8.809700,-0.461066,1.311119,0.485776,-0.040697,-0.016986,-0.592726,-0.123773,0.244095,-28.143394,-85.959654,34.478656
03680,469438,8.745876,-0.602533,1.293692,0.491192,-0.083390,-0.013650,-0.589252,-0.120389,0.245274,-28.076518,-86.005956,34.694005
03681,469538,8.686137,-0.730604,1.243603,0.486717,-0.126587,-0.005800,-0.591801,-0.121491,0.248221,-28.241784,-86.071932,35.139453
03682,469638,8.701535,-0.848480,1.289812,0.476513,-0.156793,0.003872,-0.592784,-0.119458,0.247822,-28.618668,-86.150330,35.791090
03683,469738,8.778170,-0.916604,1.391160,0.458161,-0.174795,0.012996,-0.588273,-0.119457,0.246324,-29.173258,-86.234855,36.610205
03684,469838,8.871436,-0.955903,1.537115,0.439161,-0.176136,0.023194,-0.586323,-0.117616,0.248926,-29.854928,-86.316560,37.545657
03685,469938,9.008147,-0.934681,1.573240,0.421252,-0.165403,0.033711,-0.583812,-0.116113,0.248003,-30.615799,-86.389126,38.550089
03686,470038,9.115127,-0.877960,1.557546,0.403138,-0.151638,0.037951,-0.584341,-0.118170,0.249400,-31.389942,-86.452801,39.557324
03687,470138,9.283762,-0.867591,1.551131,0.399702,-0.149293,0.034269,-0.581861,-0.118732,0.249876,-32.157278,-86.515573,40.555682
03688,470238,9.420471,-0.754006,1.485316,0.391576,-0.152415,0.029411,-0.580872,-0.117775,0.250427,-32.938715,-86.580501,41.563419
03689,470338,9.501243,-0.654914,1.469520,0.381668,-0.163309,0.019603,-0.579445,-0.119462,0.253850,-33.739877,-86.652873,42.585147
03690,470438,9.603531,-0.622496,1.518592,0.376741,-0.172028,0.008809,-0.579420,-0.115428,0.253053,-34.544548,-86.731984,43.607474
03691,470538,9.739111,-0.583051,1.550986,0.364421,-0.174870,-0.001057,-0.576920,-0.115443,0.252554,-35.335590,-86.814822,44.608989
03692,470638,9.847775,-0.515087,1.643858,0.347133,-0.161137,-0.013160,-0.575450,-0.113547,0.254156,-35.995233,-86.894573,45.468903
03693,470738,9.900482,-0.408468,1.702390,0.333586,-0.128175,-0.025760,-0.573977,-0.115611,0.255054,-36.380236,-86.962893,46.045946
03694,470838,9.866858,-0.362618,1.739521,0.325157,-0.095769,-0.039703,-0.574493,-0.114655,0.256104,-36.455053,-87.020873,46.307505
03695,470938,9.802296,-0.298959,1.764522,0.311213,-0.077145,-0.055543,-0.571997,-0.117162,0.255478,-36.277119,-87.075637,46.307964
03696,471038,9.717941,-0.274540,1.845252,0.296166,-0.069603,-0.069180,-0.571026,-0.115755,0.257054,-35.927432,-87.131497,46.127819
03697,471138,9.610924,-0.165450,1.879380,0.281561,-0.066913,-0.083202,-0.571034,-0.114783,0.257605,-35.423999,-87.190703,45.785374
03698,471238,9.532247,-0.097903,1.917835,0.270482,-0.068663,-0.093291,-0.567552,-0.117827,0.257453,-34.821679,-87.253871,45.337591
03699,471338,9.430748,-0.050918,1.927134,0.261029,-0.066960,-0.098854,-0.567104,-0.114492,0.260630,-34.131825,-87.317774,44.796786
03700,471438,9.359310,-0.088310,1.834091,0.244429,-0.070394,-0.106302,-0.568095,-0.116944,0.260003,-33.367132,-87.385337,44.171573
03701,471538,9.345446,-0.163280,1.773208,0.242685,-0.073503,-0.107636,-0.569562,-0.116848,0.258503,-32.573512,-87.454394,43.516439
03702,471638,9.312556,-0.030236,1.678485,0.243924,-0.075301,-0.118446,-0.563659,-0.117135,0.262504,-31.629254,-87.527145,42.711277
03703,471738,9.317593,-0.082896,1.672534,0.238976,-0.075377,-0.132629,-0.565114,-0.120977,0.259801,-30.468346,-87.603452,41.686478
03704,471838,9.326636,-0.031432,1.730494,0.227624,-0.063582,-0.141474,-0.565193,-0.124159,0.263647,-29.051918,-87.675393,40.399493
03705,471938,9.349280,-0.021290,1.826052,0.207242,-0.050509,-0.150258,-0.560179,-0.121176,0.262301,-27.360386,-87.741632,38.825564
03706,472038,9.316217,-0.161966,1.830170,0.175251,-0.046728,-0.156290,-0.560697,-0.122213,0.263250,-25.484228,-87.805459,37.048595
03707,472138,9.313903,-0.074567,1.943534,0.150304,-0.057250,-0.150711,-0.558149,-0.126070,0.259549,-23.658564,-87.871155,35.307930
03708,472238,9.435081,0.076960,2.132142,0.124249,-0.061991,-0.170353,-0.558185,-0.130626,0.260820,-21.473358,-87.941320,33.192626
03709,472338,9.491300,0.051679,2.184444,0.082158,-0.049494,-0.181950,-0.558173,-0.129606,0.260371,-18.916512,-88.003778,30.681410
03710,472438,9.486093,0.033424,2.252038,0.052310,-0.045306,-0.191861,-0.554207,-0.134675,0.260618,-16.037787,-88.061344,27.831107
03711,472538,9.573248,0.078657,2.331702,0.034342,-0.040000,-0.194780,-0.554679,-0.135591,0.259067,-12.931837,-88.111170,24.743245
03712,472638,9.698099,-0.123410,2.343247,0.012433,-0.024801,-0.186826,-0.551696,-0.139127,0.258890,-9.774288,-88.145816,21.591268
03713,472738,9.720192,0.297959,2.454516,-0.004159,-0.016874,-0.188360,-0.549712,-0.144140,0.258637,-6.472770,-88.170201,18.285797
03714,472838,9.763959,0.394090,2.606061,-0.021341,-0.005917,-0.210473,-0.545694,-0.146100,0.256537,-2.693800,-88.182696,14.492827
03715,472938,9.717542,0.385650,2.691999,-0.046230,-0.005543,-0.221876,-0.543226,-0.148679,0.257411,1.312774,-88.186791,10.457897
03716,473038,9.670325,0.225548,2.681702,-0.085246,-0.011807,-0.229710,-0.542250,-0.154698,0.257606,5.446890,-88.185082,6.273002
03717,473138,9.638435,0.038723,2.652634,-0.114337,-0.015444,-0.236991,-0.540249,-0.160161,0.256328,9.674640,-88.175197,1.977733
03718,473238,9.676358,-0.172531,2.555770,-0.125282,0.002328,-0.242173,-0.536235,-0.159654,0.254855,13.840585,-88.144736,-2.262029
03719,473338,9.693667,-0.350871,2.331571,-0.123155,0.027873,-0.239611,-0.531724,-0.165110,0.252578,17.673668,-88.091131,-6.167648
03720,473438,9.780309,-0.496791,2.224081,-0.110568,0.059189,-0.238708,-0.528217,-0.169577,0.250851,21.084387,-88.012750,-9.643611
03721,473538,10.008254,-0.409175,2.279594,-0.098740,0.096103,-0.234570,-0.526278,-0.173216,0.253173,23.932078,-87.909384,-12.549618
03722,473638,10.416299,-0.349105,2.348476,-0.103850,0.140177,-0.226356,-0.522722,-0.176567,0.248997,26.099689,-87.780687,-14.778223
03723,473738,10.743114,-0.382274,2.165978,-0.135759,0.177542,-0.211592,-0.522229,-0.184522,0.248091,27.581163,-87.634097,-16.338666
03724,473838,10.910305,-0.538690,1.763591,-0.144407,0.180221,-0.188318,-0.516230,-0.188032,0.246416,28.595699,-87.491104,-17.436889
03725,473938,11.100871,-0.862847,1.316967,-0.108999,0.149019,-0.155192,-0.517194,-0.190411,0.244289,29.347598,-87.372246,-18.252045
03726,474038,11.334910,-0.854833,0.953287,-0.039776,0.119028,-0.119521,-0.513750,-0.194051,0.246112,29.879145,-87.278033,-18.807001
03727,474138,11.603442,-0.832147,0.660944,0.032182,0.093437,-0.091254,-0.514208,-0.197410,0.243435,30.280440,-87.204429,-19.190343
03728,474238,12.036800,-0.858949,0.533610,0.076743,0.071934,-0.074587,-0.507257,-0.205018,0.243556,30.647782,-87.146176,-19.514177
03729,474338,12.551028,-0.887947,0.523741,0.083280,0.089367,-0.065719,-0.513263,-0.205494,0.245028,30.818393,-87.081875,-19.637326
03730,474438,12.945124,-0.680526,0.593298,0.057536,0.111238,-0.063381,-0.513713,-0.209825,0.241800,30.822589,-87.007501,-19.608638
03731,474538,13.237630,-0.394335,0.653140,0.028962,0.136170,-0.068252,-0.513244,-0.210404,0.243274,30.719671,-86.919432,-19.489094
03732,474638,13.322494,-0.075129,0.691632,-0.002609,0.162744,-0.076413,-0.515287,-0.212984,0.245646,30.538015,-86.815871,-19.308806
03733,474738,13.107188,0.327521,0.725525,-0.052229,0.181690,-0.082611,-0.518769,-0.215395,0.245018,30.297780,-86.701117,-19.098297
03734,474838,12.704401,0.715738,0.750026,-0.108644,0.182268,-0.091540,-0.523720,-0.218708,0.242839,30.112399,-86.583459,-18.975077
03735,474938,12.175436,1.125090,0.719164,-0.167128,0.172848,-0.096385,-0.524735,-0.219238,0.243813,29.987171,-86.469061,-18.945651
03736,475038,11.623180,1.357382,0.571490,-0.233462,0.158023,-0.097058,-0.529705,-0.217640,0.243388,29.901471,-86.361826,-18.993874
03737,475138,11.088038,1.404876,0.330193,-0.292131,0.147034,-0.099583,-0.533185,-0.219056,0.242811,29.851112,-86.259333,-19.111170
03738,475238,10.539114,1.279404,-0.043802,-0.337466,0.131206,-0.096737,-0.533691,-0.218574,0.243336,29.819897,-86.165531,-19.273668
03739,475338,9.922411,1.001373,-0.516984,-0.371132,0.095966,-0.085555,-0.536128,-0.219884,0.240260,29.832631,-86.092451,-19.499540
03740,475438,9.233469,0.803192,-0.952581,-0.410722,0.043366,-0.068066,-0.537626,-0.221853,0.240158,29.910833,-86.050507,-19.813771
03741,475538,8.542237,0.644670,-1.279719,-0.443331,-0.036532,-0.044917,-0.543572,-0.224652,0.238004,30.133012,-86.054809,-20.291041
03742,475638,8.154282,0.589128,-1.442731,-0.474332,-0.115236,-0.022959,-0.545089,-0.227167,0.238877,30.515046,-86.104247,-20.946319
03743,475738,7.776125,0.719193,-1.376507,-0.503611,-0.163456,0.001016,-0.546580,-0.230109,0.238224,30.930890,-86.184171,-21.652230
03744,475838,7.505743,0.886923,-1.219337,-0.532406,-0.181382,0.014506,-0.550468,-0.233268,0.232547,31.335537,-86.276565,-22.363362
03745,475938,7.442630,1.000325,-0.950863,-0.534756,-0.170985,0.023975,-0.551454,-0.237688,0.231318,31.645352,-86.366440,-22.980719
03746,476038,7.693068,1.050669,-0.670854,-0.501542,-0.131459,0.024262,-0.554904,-0.242993,0.228539,31.802476,-86.436989,-23.425938
03747,476138,8.204569,1.073933,-0.439795,-0.438143,-0.087327,0.020394,-0.557873,-0.247358,0.226810,31.820323,-86.484851,-23.695166
03748,476238,8.746288,0.951148,-0.283554,-0.368688,-0.046150,0.010841,-0.560265,-0.254503,0.220431,31.753638,-86.509793,-23.839804
03749,476338,9.213018,0.779720,-0.156623,-0.312030,-0.012416,-0.005196,-0.565232,-0.256866,0.219302,31.681226,-86.513483,-23.946164
03750,476438,9.653195,0.633069,0.013410,-0.277479,0.021805,-0.017673,-0.569704,-0.261231,0.218073,31.559782,-86.496748,-23.983557
03751,476538,9.952307,0.496183,0.118593,-0.251881,0.062530,-0.033451,-0.571613,-0.260983,0.213574,31.380889,-86.455406,-23.948693
03752,476638,10.102792,0.446952,0.022217,-0.228744,0.092505,-0.046462,-0.578007,-0.267116,0.208244,31.177291,-86.395519,-23.875786
03753,476738,10.126776,0.527937,-0.084168,-0.207186,0.098820,-0.057193,-0.577532,-0.270162,0.209091,31.043603,-86.329357,-23.860543
03754,476838,10.003809,0.664189,-0.123427,-0.193564,0.077567,-0.056717,-0.583432,-0.272840,0.204438,31.013105,-86.273780,-23.940873
03755,476938,9.843734,0.792846,-0.036119,-0.194727,0.041654,-0.049434,-0.585879,-0.274673,0.201837,31.088372,-86.237991,-24.127854
03756,477038,9.692431,0.800615,0.093799,-0.201591,0.011034,-0.035865,-0.590881,-0.275638,0.202784,31.194427,-86.221228,-24.349624
03757,477138,9.436958,0.780514,0.198771,-0.210980,-0.013492,-0.019030,-0.593363,-0.276073,0.202258,31.279820,-86.221465,-24.556068
03758,477238,9.186600,0.707627,0.380459,-0.214392,-0.033724,0.001601,-0.595312,-0.277914,0.199657,31.301930,-86.237740,-24.701038
03759,477338,9.023575,0.666334,0.625960,-0.214113,-0.042972,0.024989,-0.598827,-0.277930,0.201155,31.192041,-86.265506,-24.713551
03760,477438,8.978556,0.630852,0.789402,-0.216711,-0.038817,0.043275,-0.600757,-0.274267,0.198334,30.922447,-86.296643,-24.567502
03761,477538,8.947636,0.595913,0.866091,-0.219486,-0.010289,0.057277,-0.606751,-0.278182,0.198629,30.410918,-86.317747,-24.180603
03762,477638,8.927169,0.594532,0.931261,-0.212903,0.027520,0.063554,-0.606179,-0.277997,0.194630,29.681338,-86.321630,-23.571418
03763,477738,8.981502,0.667080,0.889667,-0.219363,0.071553,0.069716,-0.608681,-0.279476,0.195053,28.709583,-86.304631,-22.723250
03764,477838,8.918558,0.656607,0.810544,-0.231930,0.097219,0.073331,-0.610098,-0.277765,0.191130,27.605801,-86.274662,-21.749958
03765,477938,8.995170,0.654965,0.907992,-0.224173,0.096340,0.078314,-0.616033,-0.274585,0.189282,26.487961,-86.245227,-20.758080
03766,478038,9.127960,0.653430,0.925756,-0.217327,0.102435,0.086658,-0.617026,-0.277534,0.188629,25.302957,-86.213448,-19.694917
03767,478138,9.093940,0.678281,0.842925,-0.214865,0.094848,0.088745,-0.619475,-0.275405,0.186731,24.148946,-86.184701,-18.661352
03768,478238,9.026733,0.717224,0.786629,-0.210356,0.066871,0.093546,-0.619475,-0.275405,0.186731,23.070411,-86.170422,-17.700806
03769,478338,8.866224,0.754625,0.811888,-0.211964,0.021706,0.094908,-0.623442,-0.275294,0.185730,22.133658,-86.179215,-16.883266
03770,478438,8.780948,0.755105,0.867131,-0.211853,-0.028552,0.098741,-0.625434,-0.275262,0.185730,21.320078,-86.214743,-16.189116
03771,478538,8.729215,0.753048,0.991097,-0.208239,-0.067278,0.102860,-0.625904,-0.274684,0.184255,20.580178,-86.271213,-15.566754
03772,478638,8.765736,0.720489,1.181408,-0.199573,-0.082817,0.105672,-0.628864,-0.274066,0.182780,19.848165,-86.336067,-14.947349
03773,478738,8.907808,0.680806,1.321477,-0.187961,-0.070532,0.109482,-0.629379,-0.273608,0.183805,19.029344,-86.394464,-14.234326
03774,478838,9.057409,0.646395,1.450752,-0.172111,-0.033571,0.112054,-0.632830,-0.273955,0.181779,18.065908,-86.432541,-13.367333
03775,478938,9.072645,0.635760,1.391116,-0.147840,0.010016,0.115324,-0.631333,-0.272982,0.181831,16.949718,-86.446374,-12.333370
03776,479038,8.992131,0.633933,1.331128,-0.114750,0.034443,0.117162,-0.633295,-0.271384,0.180407,15.766651,-86.445784,-11.213403
03777,479138,8.913906,0.637042,1.377443,-0.081704,0.035118,0.118594,-0.636281,-0.269841,0.180482,14.589106,-86.443607,-10.079986
03778,479238,8.990207,0.628330,1.530753,-0.048656,0.028238,0.120182,-0.635251,-0.271255,0.178407,13.432963,-86.444043,-8.949029
03779,479338,9.101804,0.651905,1.607374,-0.027651,0.029782,0.126161,-0.634232,-0.268732,0.177535,12.232247,-86.442934,-7.761342
03780,479438,9.215589,0.689895,1.630957,-0.020634,0.023168,0.130478,-0.636753,-0.270259,0.178957,11.009534,-86.444475,-6.547578
03781,479538,9.186341,0.741767,1.585609,-0.026212,0.024481,0.137210,-0.635233,-0.266747,0.178136,9.720014,-86.444320,-5.270067
03782,479638,9.098958,0.755455,1.508095,-0.034508,0.041311,0.142947,-0.637187,-0.265623,0.176187,8.351775,-86.433321,-3.918429
03783,479738,9.059895,0.687764,1.439540,-0.042599,0.062758,0.149481,-0.639185,-0.268581,0.176034,6.905080,-86.408582,-2.492789
03784,479838,9.142079,0.574894,1.342320,-0.052754,0.095089,0.156669,-0.638713,-0.267664,0.177584,5.380818,-86.363571,-0.995196
03785,479938,9.173410,0.526549,1.461476,-0.065739,0.120804,0.162614,-0.640183,-0.264603,0.176737,3.819070,-86.301624,0.532602
03786,480038,9.209214,0.569376,1.630341,-0.086844,0.134355,0.163882,-0.641660,-0.265029,0.175711,2.281546,-86.229343,2.024131
03787,480138,9.249809,0.649398,1.817539,-0.121853,0.140412,0.163766,-0.641593,-0.263864,0.172263,0.782416,-86.151043,3.457217
03788,480238,9.404289,0.699552,2.019566,-0.162865,0.145451,0.166726,-0.642060,-0.262290,0.170840,-0.704778,-86.067400,4.854936
03789,480338,9.582048,0.765604,2.178015,-0.196446,0.167192,0.166076,-0.642532,-0.263206,0.169289,-2.138275,-85.968920,6.179707
03790,480438,9.749606,0.895215,2.286495,-0.217431,0.213795,0.161531,-0.648952,-0.262959,0.166289,-3.459162,-85.841710,7.379727
03791,480538,9.894567,0.993241,2.324511,-0.229526,0.271123,0.154092,-0.648934,-0.262911,0.165289,-4.619937,-85.680206,8.412482
03792,480638,10.030782,0.999700,2.339318,-0.230363,0.317490,0.143219,-0.646868,-0.263746,0.161241,-5.589988,-85.491403,9.253721
03793,480738,10.208538,0.876832,2.411940,-0.218761,0.345037,0.129546,-0.648266,-0.261488,0.156344,-6.364655,-85.286754,9.905854
03794,480838,10.466320,0.646211,2.596353,-0.189409,0.359506,0.117326,-0.651230,-0.263362,0.154742,-6.971005,-85.074064,10.406155
03795,480938,10.669436,0.304651,2.769434,-0.136517,0.368303,0.110730,-0.652673,-0.260228,0.152395,-7.452961,-84.856455,10.812173
03796,481038,10.895795,-0.103099,3.012020,-0.074387,0.376591,0.117470,-0.652158,-0.261683,0.151319,-7.897897,-84.633335,11.216903
03797,481138,11.265405,-0.487154,3.172855,-0.006463,0.407275,0.135786,-0.652092,-0.261016,0.147846,-8.350888,-84.391036,11.668973
03798,481238,11.811429,-0.948123,3.017776,0.055707,0.472710,0.169359,-0.653538,-0.259875,0.145397,-8.860673,-84.108429,12.214119
03799,481338,12.174349,-1.014638,2.597178,0.109773,0.532876,0.204863,-0.652966,-0.254732,0.142153,-9.425183,-83.788057,12.845732
03800,481438,12.438658,-0.605836,2.252840,0.139752,0.566833,0.232585,-0.657910,-0.254059,0.140177,-10.021271,-83.445177,13.526792
03801,481538,12.776645,0.078812,2.072409,0.144465,0.573841,0.233723,-0.656322,-0.248883,0.135934,-10.550442,-83.097518,14.143661
03802,481638,13.231550,0.684578,1.710597,0.132459,0.548433,0.209272,-0.656300,-0.246842,0.135036,-10.945026,-82.766228,14.618431
03803,481738,13.731520,1.103447,1.268500,0.107883,0.468715,0.183615,-0.661220,-0.243629,0.132187,-11.274158,-82.482258,15.013335
03804,481838,13.887777,1.277339,0.774429,0.043723,0.368897,0.146506,-0.660205,-0.238140,0.131967,-11.544576,-82.258331,15.312149
03805,481938,13.436429,1.071528,0.172646,-0.027731,0.261032,0.116195,-0.662629,-0.237434,0.128494,-11.808193,-82.098302,15.562909
03806,482038,12.663853,0.644420,-0.232373,-0.086065,0.159795,0.100965,-0.659613,-0.231953,0.127774,-12.120323,-81.996700,15.828976
03807,482138,11.656813,0.128869,-0.544820,-0.129843,0.073024,0.091934,-0.658610,-0.228481,0.127952,-12.490032,-81.944601,16.127895
03808,482238,10.650901,-0.269390,-0.852440,-0.136694,-0.036287,0.095779,-0.658080,-0.225926,0.126580,-12.972974,-81.952840,16.537204
03809,482338,9.698499,-0.568167,-1.140744,-0.135857,-0.178039,0.097705,-0.657101,-0.220035,0.128385,-13.598923,-82.039359,17.091337
03810,482438,9.119920,-0.969845,-0.869396,-0.090479,-0.290276,0.097269,-0.654636,-0.219150,0.129936,-14.324887,-82.187466,17.772501
03811,482538,8.546606,-1.422448,-0.625842,-0.005211,-0.332558,0.111262,-0.654589,-0.213573,0.128216,-15.133232,-82.355731,18.585816
03812,482638,7.702931,-1.896133,-0.425235,0.120435,-0.354792,0.111127,-0.652658,-0.211282,0.131842,-15.931412,-82.534766,19.461133
03813,482738,7.027244,-2.331022,-0.183473,0.309504,-0.365199,0.109482,-0.652191,-0.207899,0.134019,-16.667457,-82.718251,20.382632
03814,482838,6.769467,-2.580912,0.103652,0.518131,-0.336475,0.105396,-0.653729,-0.206501,0.136594,-17.267825,-82.885299,21.287468
03815,482938,6.990265,-2.509961,0.372900,0.684603,-0.252431,0.099383,-0.656202,-0.201953,0.136322,-17.659871,-83.006467,22.078189
03816,483038,7.475705,-2.064072,0.726211,0.775056,-0.125308,0.085407,-0.655300,-0.197252,0.142074,-17.770751,-83.060267,22.637693
03817,483138,8.150738,-1.658112,0.881652,0.777423,-0.002757,0.070539,-0.657260,-0.194657,0.140701,-17.640137,-83.049788,22.955243
03818,483238,8.792904,-1.322160,0.855895,0.690709,0.089768,0.060779,-0.657228,-0.192592,0.139303,-17.384142,-82.990575,23.096431
03819,483338,9.304943,-0.815267,0.817540,0.591829,0.108088,0.058352,-0.663707,-0.189025,0.139979,-17.149660,-82.921839,23.202221
03820,483438,9.884102,-0.060080,0.756076,0.492482,0.087077,0.057160,-0.661744,-0.190126,0.141428,-16.996139,-82.864870,23.332249
03821,483538,10.538616,0.634047,0.469948,0.404919,0.042521,0.045240,-0.667699,-0.187990,0.140529,-16.900179,-82.834369,23.469739
03822,483638,11.040161,0.969910,0.045665,0.328490,-0.011238,0.029814,-0.666720,-0.187057,0.141579,-16.851829,-82.835955,23.611086
03823,483738,11.266450,0.832588,-0.204980,0.267924,-0.045460,0.010524,-0.670196,-0.185981,0.141129,-16.799304,-82.859552,23.713245
03824,483838,10.949697,0.380891,-0.170863,0.218632,-0.046294,-0.012732,-0.666715,-0.184068,0.141732,-16.674140,-82.887487,23.713726
03825,483938,10.395169,-0.072342,0.100243,0.186084,-0.054064,-0.037393,-0.667718,-0.182581,0.142308,-16.468392,-82.923739,23.614202
03826,484038,9.901285,-0.451097,0.462038,0.184228,-0.079703,-0.057764,-0.669681,-0.181979,0.140833,-16.204761,-82.977333,23.455284
03827,484138,9.515870,-0.727256,0.816389,0.204577,-0.116986,-0.056500,-0.667192,-0.182517,0.140808,-15.980225,-83.051177,23.347512
03828,484238,9.048946,-0.912913,1.008092,0.237752,-0.148041,-0.037139,-0.667702,-0.179070,0.141985,-15.862059,-83.139054,23.366044
03829,484338,8.751251,-0.834117,1.201672,0.231111,-0.179286,-0.035502,-0.667700,-0.177575,0.142061,-15.795287,-83.243906,23.432494
03830,484438,8.532427,-0.863747,1.154436,0.275844,-0.209447,-0.010891,-0.663722,-0.176666,0.142614,-15.859705,-83.361543,23.656818
03831,484538,8.095894,-0.764026,1.227949,0.313552,-0.255904,-0.001047,-0.666269,-0.176771,0.145612,-16.019604,-83.503176,23.998939
03832,484638,8.169000,-0.692005,1.238435,0.319510,-0.293638,0.012130,-0.665279,-0.175316,0.146188,-16.307103,-83.663322,24.472792
03833,484738,8.280583,-0.597090,1.220156,0.314182,-0.318104,0.026902,-0.663350,-0.174520,0.149738,-16.729770,-83.834174,25.079396
03834,484838,8.413743,-0.498481,1.239096,0.313625,-0.333625,0.041734,-0.662831,-0.173483,0.148789,-17.284563,-84.010479,25.818349
03835,484938,8.610041,-0.394007,1.309758,0.282466,-0.346796,0.047088,-0.661897,-0.171675,0.152390,-17.948192,-84.192210,26.648528
03836,485038,8.758941,-0.375680,1.410710,0.256382,-0.342616,0.049846,-0.661952,-0.171321,0.155414,-18.682468,-84.370118,27.534421
03837,485138,8.906556,-0.387940,1.503602,0.233771,-0.333657,0.050238,-0.661427,-0.172253,0.153864,-19.466809,-84.541917,28.457332
03838,485238,8.918765,-0.509535,1.486354,0.210771,-0.330903,0.048566,-0.658976,-0.173386,0.155813,-20.304156,-84.711280,29.419983
03839,485338,8.890667,-0.606374,1.578570,0.171214,-0.325196,0.040738,-0.658974,-0.172389,0.155864,-21.163965,-84.877818,30.382169
03840,485438,8.899520,-0.674360,1.715142,0.124868,-0.306880,0.033678,-0.658538,-0.171071,0.159439,-22.023063,-85.034755,31.316742
03841,485538,8.837202,-0.728775,1.805135,0.088546,-0.262647,0.021160,-0.657551,-0.170613,0.159964,-22.766341,-85.169823,32.113976
03842,485638,8.831249,-0.734481,1.870911,0.054657,-0.198983,0.007368,-0.656069,-0.172653,0.160363,-23.309328,-85.273638,32.690598
03843,485738,8.854220,-0.740358,1.857253,0.008184,-0.144570,-0.009382,-0.654074,-0.171190,0.160440,-23.641007,-85.352305,33.028412
03844,485838,8.928742,-0.658059,1.882512,-0.033086,-0.106763,-0.024226,-0.655565,-0.174630,0.159762,-23.801345,-85.414438,33.170573
03845,485938,9.152421,-0.517615,1.915929,-0.091656,-0.079281,-0.040909,-0.653065,-0.174645,0.159263,-23.808816,-85.466003,33.125708
03846,486038,9.442206,-0.481318,1.786719,-0.144881,-0.054640,-0.052612,-0.654119,-0.175771,0.162211,-23.695936,-85.507340,32.929533
03847,486138,9.637765,-0.596486,1.468101,-0.168293,-0.031073,-0.054519,-0.652591,-0.177193,0.160136,-23.511772,-85.536701,32.648409
03848,486238,9.809603,-0.729548,1.159432,-0.155890,0.002675,-0.058546,-0.652528,-0.178519,0.156561,-23.192079,-85.549130,32.238481
03849,486338,9.891457,-0.818864,0.948264,-0.110677,0.049951,-0.072341,-0.649970,-0.182351,0.152360,-22.616469,-85.539436,31.597842
03850,486438,9.900118,-0.905976,0.721413,-0.054631,0.090999,-0.094442,-0.650552,-0.182560,0.156858,-21.749758,-85.512124,30.697404
03851,486538,9.938015,-1.067572,0.420152,0.000602,0.090607,-0.117915,-0.649980,-0.182874,0.152834,-20.704222,-85.488727,29.649296
03852,486638,10.087129,-1.190260,0.094222,0.031810,0.031904,-0.130606,-0.646965,-0.183845,0.151285,-19.708847,-85.497956,28.669424
03853,486738,10.253597,-1.258805,0.019994,0.060420,-0.060763,-0.138646,-0.644525,-0.185998,0.153683,-18.856454,-85.557587,27.849454
03854,486838,10.528624,-1.300887,0.343243,0.109551,-0.121990,-0.141930,-0.645572,-0.183636,0.156809,-18.072130,-85.650176,27.126066
03855,486938,10.892144,-1.310731,1.079555,0.173471,-0.090448,-0.143426,-0.642609,-0.187717,0.157606,-17.135549,-85.724957,26.286796
03856,487038,11.157621,-1.246135,1.940440,0.223406,0.012820,-0.139953,-0.642025,-0.186512,0.153159,-15.942776,-85.741259,25.219366
03857,487138,11.347763,-1.010493,2.752757,0.232576,0.134289,-0.144180,-0.646077,-0.187614,0.156605,-14.469604,-85.689171,23.876001
03858,487238,11.519391,-0.590073,3.259980,0.194620,0.258792,-0.148846,-0.644546,-0.187541,0.154607,-12.810280,-85.565648,22.323986
03859,487338,11.747728,-0.119074,3.448341,0.128948,0.394672,-0.152601,-0.648018,-0.189929,0.153479,-11.061843,-85.362914,20.644501
03860,487438,11.787868,0.422905,3.037075,0.055242,0.522582,-0.156156,-0.646491,-0.186891,0.152132,-9.335253,-85.084462,18.943999
03861,487538,11.565898,0.772099,2.228828,-0.019037,0.595711,-0.168142,-0.647427,-0.189696,0.148481,-7.698361,-84.761549,17.290057
03862,487638,11.309747,0.633528,1.444223,-0.050363,0.599353,-0.174125,-0.649834,-0.189439,0.143982,-6.233531,-84.433146,15.790054
03863,487738,11.534995,0.330303,0.957346,-0.037613,0.551952,-0.167506,-0.649819,-0.191384,0.142881,-4.986753,-84.128169,14.515724
03864,487838,12.055144,-0.033236,0.565404,-0.041644,0.490382,-0.154348,-0.653260,-0.191706,0.140355,-3.958989,-83.855329,13.458630
03865,487938,12.250742,-0.518614,0.101548,-0.071508,0.416224,-0.136336,-0.648774,-0.190283,0.140433,-3.149045,-83.622536,12.602938
03866,488038,11.909089,-0.990741,-0.619590,-0.104693,0.307987,-0.113102,-0.652706,-0.191570,0.137357,-2.554897,-83.449913,11.944939
03867,488138,11.300482,-0.989202,-0.988703,-0.137464,0.169508,-0.093344,-0.651206,-0.188604,0.137509,-2.132050,-83.355472,11.440293
03868,488238,10.830263,-0.706969,-0.700080,-0.153440,0.051458,-0.079365,-0.653689,-0.189537,0.136958,-1.816775,-83.327999,11.034662
03869,488338,10.412057,-0.403451,-0.493687,-0.168511,-0.003618,-0.067031,-0.651189,-0.189054,0.136484,-1.580415,-83.331646,10.699773
03870,488438,9.692074,-0.112410,-0.558985,-0.165648,-0.022166,-0.057573,-0.652711,-0.189103,0.137983,-1.390599,-83.345646,10.413392
03871,488538,8.742382,0.303724,-0.406613,-0.151075,-0.064172,-0.062749,-0.653212,-0.190590,0.137907,-1.169991,-83.383665,10.104427
03872,488638,7.883384,0.781580,-0.093348,-0.143657,-0.115096,-0.073260,-0.655220,-0.189112,0.138982,-0.893562,-83.450820,9.743575
03873,488738,7.398215,1.197506,0.341758,-0.166179,-0.146970,-0.081724,-0.654249,-0.187705,0.140558,-0.582258,-83.536090,9.334688
03874,488838,7.215083,1.588018,0.728165,-0.235056,-0.123757,-0.079481,-0.654212,-0.187609,0.138559,-0.311973,-83.607817,8.927425
03875,488938,7.342721,1.806362,0.822445,-0.354820,-0.044647,-0.074313,-0.653693,-0.191530,0.136856,-0.129471,-83.634027,8.539482
03876,489038,7.624858,1.833218,0.689871,-0.474168,0.056768,-0.064038,-0.656169,-0.193933,0.135729,-0.066675,-83.602031,8.203178
03877,489138,8.151038,1.625763,0.474074,-0.543109,0.138191,-0.045155,-0.656159,-0.198369,0.134501,-0.141309,-83.523372,7.965382
03878,489238,8.824135,1.265900,0.265288,-0.546373,0.177899,-0.025789,-0.658077,-0.198643,0.130476,-0.315729,-83.421982,7.826092
03879,489338,9.553793,0.846098,0.094244,-0.498541,0.158184,-0.012536,-0.657040,-0.201528,0.127825,-0.527893,-83.331893,7.752356
03880,489438,10.270811,0.310591,0.021745,-0.420353,0.084112,-0.006150,-0.657986,-0.204357,0.124674,-0.728397,-83.284241,7.711967
03881,489538,10.979285,-0.273118,0.021250,-0.331124,-0.023891,0.000585,-0.658488,-0.206841,0.124546,-0.916875,-83.298433,7.710938
03882,489638,11.649368,-0.606731,-0.009877,-0.250195,-0.131483,0.007722,-0.658975,-0.205812,0.124098,-1.103706,-83.374198,7.754930
03883,489738,12.051156,-0.604123,-0.016698,-0.189073,-0.201066,0.008145,-0.658012,-0.208889,0.125445,-1.267474,-83.489810,7.810943
03884,489838,12.010039,-0.424194,0.116701,-0.144752,-0.227834,-0.003207,-0.659996,-0.208834,0.124944,-1.354730,-83.620898,7.815494
03885,489938,11.452825,-0.348714,0.370537,-0.110185,-0.227118,-0.013480,-0.660014,-0.208882,0.125944,-1.370083,-83.751720,7.767624
03886,490038,10.722217,-0.385272,0.730329,-0.078903,-0.239228,-0.016008,-0.659544,-0.208962,0.127443,-1.354635,-83.889516,7.706812
03887,490138,10.037407,-0.327146,1.031386,-0.051141,-0.265468,-0.010296,-0.659554,-0.209484,0.127918,-1.355986,-84.042265,7.678904
03888,490238,9.388073,-0.151525,1.336249,-0.044041,-0.292865,0.010158,-0.656078,-0.210062,0.128393,-1.471680,-84.210419,7.770042
03889,490338,8.776975,0.172251,1.540893,-0.088056,-0.304415,0.029028,-0.660576,-0.208046,0.129493,-1.730913,-84.384851,7.980064
03890,490438,8.501796,0.497295,1.583579,-0.163383,-0.275006,0.044282,-0.658609,-0.207154,0.131044,-2.134230,-84.542022,8.291427
03891,490538,8.360920,0.675159,1.489110,-0.242192,-0.199144,0.052837,-0.660122,-0.207178,0.132043,-2.636253,-84.655315,8.656509
03892,490638,8.289852,0.677623,1.276504,-0.300154,-0.127638,0.056760,-0.659118,-0.207668,0.131518,-3.190799,-84.727253,9.040933
03893,490738,8.262018,0.599512,1.077144,-0.342503,-0.078397,0.060703,-0.659596,-0.207114,0.130544,-3.787497,-84.770531,9.443283
03894,490838,8.280817,0.446031,0.939148,-0.345823,-0.084124,0.056220,-0.659090,-0.207596,0.130019,-4.368840,-84.816884,9.828274
03895,490938,8.462889,0.333199,0.798961,-0.325408,-0.130047,0.048247,-0.660111,-0.211116,0.130840,-4.921103,-84.889485,10.195773
03896,491038,8.711165,0.256485,0.666226,-0.298876,-0.176474,0.035279,-0.657075,-0.211043,0.128342,-5.415372,-84.988945,10.520262
03897,491138,8.781148,0.244003,0.557083,-0.260950,-0.221785,0.025903,-0.659106,-0.211606,0.130315,-5.872554,-85.114529,10.829277
03898,491238,8.625168,0.330938,0.519611,-0.223538,-0.268550,0.015336,-0.659095,-0.210585,0.129867,-6.290815,-85.267193,11.120677
03899,491338,8.376261,0.496823,0.601559,-0.183162,-0.303803,-0.000113,-0.659088,-0.212056,0.129290,-6.628268,-85.440760,11.354141
03900,491438,8.342351,0.627242,0.740397,-0.152255,-0.309977,-0.021771,-0.658093,-0.212570,0.129265,-6.814976,-85.619204,11.454101
03901,491538,8.453508,0.700297,0.937661,-0.121309,-0.271878,-0.034335,-0.657170,-0.212280,0.133289,-6.863101,-85.776815,11.432843
03902,491638,8.652213,0.653138,1.025184,-0.084659,-0.199518,-0.040172,-0.654685,-0.215309,0.133138,-6.775524,-85.893654,11.296579
03903,491738,8.849725,0.508668,1.073839,-0.038562,-0.129467,-0.038955,-0.655160,-0.212762,0.132265,-6.598481,-85.970525,11.097118
03904,491838,9.084160,0.370256,1.076177,-0.007700,-0.085415,-0.029734,-0.652220,-0.218884,0.133960,-6.431317,-86.021675,10.925300
03905,491938,9.321991,0.286082,1.122669,0.007707,-0.070273,-0.019725,-0.652686,-0.216811,0.132562,-6.319941,-86.063535,10.818263
03906,492038,9.477659,0.275171,1.142210,0.014807,-0.061955,-0.009537,-0.649185,-0.213853,0.132216,-6.279676,-86.100006,10.786584
03907,492138,9.436241,0.369192,1.140226,0.014879,-0.049932,-0.001121,-0.650728,-0.215444,0.134639,-6.298431,-86.129099,10.814105
03908,492238,9.284907,0.460928,1.038140,-0.002496,-0.045444,0.003466,-0.651163,-0.216264,0.131089,-6.362149,-86.155345,10.876710
03909,492338,9.216927,0.565485,0.983295,-0.032595,-0.036218,0.012472,-0.649246,-0.217485,0.135037,-6.511844,-86.175750,11.008197
03910,492438,9.212380,0.653755,0.833055,-0.056698,-0.035539,0.025686,-0.644715,-0.216439,0.132590,-6.789231,-86.194858,11.253813
03911,492538,9.240879,0.797388,0.753353,-0.068866,-0.037346,0.039725,-0.647194,-0.214881,0.132166,-7.198735,-86.213917,11.624838
03912,492638,9.338519,0.980558,0.773072,-0.092412,-0.032068,0.049371,-0.645715,-0.218416,0.132488,-7.702667,-86.229065,12.076962
03913,492738,9.480415,1.169715,0.843106,-0.130841,-0.017840,0.058074,-0.643667,-0.218802,0.129465,-8.289741,-86.235162,12.590330
03914,492838,9.664882,1.292917,0.895854,-0.191926,0.000833,0.064187,-0.644655,-0.218762,0.128964,-8.940981,-86.229791,13.132920
03915,492938,9.794997,1.247004,0.859846,-0.256103,0.002402,0.069238,-0.640170,-0.218335,0.128991,-9.668078,-86.222638,13.714675
03916,493038,9.876395,1.042664,0.786470,-0.314713,-0.001725,0.069596,-0.641140,-0.218745,0.127466,-10.435564,-86.217278,14.303251
03917,493138,9.997650,0.638411,0.789739,-0.326032,0.014625,0.079868,-0.638584,-0.218616,0.123968,-11.267252,-86.201070,14.949671
03918,493238,10.285025,0.199643,0.965561,-0.314070,0.063926,0.096288,-0.637579,-0.219106,0.123444,-12.135249,-86.154659,15.639372
03919,493338,10.652234,-0.277622,1.254813,-0.287485,0.147301,0.123851,-0.634527,-0.219981,0.119895,-13.038181,-86.057475,16.379417
03920,493438,11.248977,-0.721547,1.616174,-0.254283,0.247455,0.158685,-0.636470,-0.217836,0.117497,-13.961967,-85.899039,17.159560
03921,493538,11.934233,-1.126199,1.800528,-0.221689,0.322484,0.205041,-0.634967,-0.218334,0.116972,-14.999731,-85.691416,18.072903
03922,493638,12.447319,-1.303549,1.897076,-0.199522,0.355856,0.255843,-0.634379,-0.214638,0.112652,-16.221765,-85.456255,19.184086
03923,493738,12.721266,-1.177868,2.167940,-0.202955,0.408086,0.286948,-0.632832,-0.211552,0.110306,-17.427177,-85.185519,20.277020
03924,493838,13.004096,-0.936190,2.264076,-0.209796,0.516188,0.307709,-0.632251,-0.206385,0.106561,-18.421366,-84.850526,21.154493
03925,493938,13.524533,-0.828754,1.831164,-0.202224,0.622975,0.329010,-0.633605,-0.206000,0.099064,-19.207943,-84.452538,21.828319
03926,494038,13.872521,-0.590086,0.850783,-0.186281,0.666479,0.344000,-0.630110,-0.201072,0.099319,-19.884326,-84.027421,22.401040
03927,494138,13.623553,-0.285126,-0.428891,-0.121964,0.579341,0.336265,-0.635548,-0.198896,0.097420,-20.561316,-83.650044,23.011845
03928,494238,12.783281,-0.062852,-1.483352,-0.022335,0.408769,0.308344,-0.633973,-0.194742,0.093625,-21.285044,-83.368909,23.727509
03929,494338,11.620475,-0.067705,-1.787842,0.062488,0.212879,0.261397,-0.631949,-0.187750,0.092982,-22.044858,-83.201004,24.528748
03930,494438,10.713001,-0.243580,-1.176097,0.107566,0.027750,0.213162,-0.633002,-0.182920,0.096734,-22.871038,-83.140416,25.423012
03931,494538,10.021415,-0.492124,-0.445645,0.104459,-0.098174,0.181858,-0.629455,-0.180838,0.093838,-23.788717,-83.151580,26.407677
03932,494638,9.395478,-0.752669,-0.098283,0.071356,-0.169984,0.170807,-0.631490,-0.178436,0.096463,-24.824528,-83.200848,27.492146
03933,494738,8.700400,-1.015317,0.087859,0.061417,-0.219465,0.157389,-0.629529,-0.170118,0.099395,-25.927586,-83.276616,28.638457
03934,494838,7.949411,-1.149946,0.345721,0.102962,-0.240028,0.144458,-0.629038,-0.168655,0.099971,-27.021293,-83.363634,29.799129
03935,494938,7.432591,-1.113445,0.837529,0.194983,-0.208921,0.127484,-0.632043,-0.167660,0.101021,-27.943814,-83.436936,30.840368
03936,495038,7.261810,-1.012424,1.263279,0.294739,-0.089458,0.100662,-0.629063,-0.162275,0.102301,-28.424950,-83.455686,31.494761
03937,495138,7.293135,-0.901706,1.373120,0.371813,0.089418,0.069048,-0.628593,-0.162355,0.103800,-28.299609,-83.392619,31.583152
03938,495238,7.608990,-0.847505,1.102500,0.413043,0.251899,0.043407,-0.629078,-0.160330,0.103402,-27.668870,-83.254301,31.186502
03939,495338,8.007184,-0.726384,0.797107,0.430058,0.343139,0.027817,-0.628997,-0.161608,0.098827,-26.787191,-83.072987,30.546805
03940,495438,8.321688,-0.505919,0.577113,0.423707,0.344690,0.003678,-0.628532,-0.159221,0.100954,-25.845124,-82.895820,29.842355
03941,495538,8.762721,-0.245082,0.629029,0.391627,0.289836,-0.021524,-0.630957,-0.158515,0.097480,-24.963215,-82.751894,29.179760
03942,495638,9.321464,-0.169916,0.704687,0.347146,0.228977,-0.055598,-0.628458,-0.159028,0.096955,-24.109616,-82.646563,28.519823
03943,495738,9.980342,-0.212218,0.546516,0.297359,0.170261,-0.076297,-0.630422,-0.158924,0.095455,-23.324733,-82.575618,27.900273
03944,495838,10.641833,-0.376203,0.268199,0.251325,0.125390,-0.075276,-0.632376,-0.158298,0.093481,-22.659065,-82.527115,27.374260
03945,495938,10.955071,-0.601833,0.149306,0.211327,0.096116,-0.066421,-0.628951,-0.156031,0.097107,-22.107497,-82.491472,26.940155
03946,496038,10.880542,-0.943528,0.273368,0.174300,0.087354,-0.061442,-0.627405,-0.153443,0.094736,-21.615819,-82.458918,26.545023
03947,496138,10.715336,-1.253612,0.393718,0.159203,0.071334,-0.052584,-0.625358,-0.153829,0.091712,-21.197228,-82.432649,26.214864
03948,496238,9.993736,-1.486826,0.841319,0.197533,0.062061,-0.023517,-0.628377,-0.150390,0.093889,-20.890273,-82.405085,26.019468
03949,496338,9.652354,-1.433742,1.231496,0.193770,0.025759,-0.008171,-0.626870,-0.148396,0.093491,-20.703845,-82.393730,25.943493
03950,496438,9.345955,-1.358041,1.360287,0.196279,0.001738,0.005262,-0.625870,-0.146419,0.093593,-20.606564,-82.392512,25.958916
03951,496538,9.040481,-1.335234,1.441336,0.233190,-0.027980,0.018600,-0.626372,-0.142948,0.094270,-20.586671,-82.404542,26.073761
03952,496638,8.764361,-1.288479,1.429199,0.272205,-0.053240,0.036099,-0.625938,-0.142626,0.097794,-20.653502,-82.426578,26.298654
03953,496738,8.462466,-1.129676,1.453301,0.310175,-0.078834,0.041077,-0.626885,-0.140995,0.095371,-20.758897,-82.461275,26.584389
03954,496838,8.361924,-0.906398,1.537620,0.341501,-0.106789,0.041969,-0.622414,-0.137627,0.096550,-20.895313,-82.510677,26.919501
03955,496938,8.377009,-0.638740,1.622356,0.337372,-0.128058,0.031126,-0.625473,-0.135281,0.100675,-21.026493,-82.573577,27.246909
03956,497038,8.419623,-0.432165,1.648592,0.322597,-0.150145,0.021439,-0.623980,-0.135803,0.100650,-21.165563,-82.650177,27.573692
03957,497138,8.491006,-0.363774,1.707323,0.322058,-0.165609,0.014127,-0.623955,-0.132267,0.099828,-21.304606,-82.736448,27.900081
03958,497238,8.567534,-0.273190,1.660164,0.286816,-0.181149,0.001431,-0.622531,-0.130491,0.103928,-21.441752,-82.833558,28.204142
03959,497338,8.652201,-0.284802,1.627433,0.247950,-0.184469,-0.011531,-0.622528,-0.128498,0.104030,-21.557356,-82.935073,28.463991
03960,497438,8.773190,-0.433123,1.720012,0.216562,-0.189954,-0.016786,-0.622054,-0.132042,0.104852,-21.683173,-83.040547,28.715958
03961,497538,8.812260,-0.614610,1.796237,0.193702,-0.200988,-0.015671,-0.619597,-0.129686,0.106979,-21.852552,-83.151572,28.998563
03962,497638,8.926840,-0.811067,1.822741,0.174596,-0.217142,-0.013459,-0.621617,-0.129727,0.108478,-22.079861,-83.270584,29.328426
03963,497738,8.945773,-0.962101,1.834709,0.163098,-0.225470,-0.006711,-0.617657,-0.127870,0.110080,-22.370382,-83.392367,29.715233
03964,497838,8.871454,-0.988476,1.805246,0.150769,-0.233993,-0.004172,-0.619657,-0.126866,0.110630,-22.709155,-83.517850,30.143416
03965,497938,8.712963,-0.907626,1.803720,0.132903,-0.243481,-0.007778,-0.615718,-0.127049,0.113130,-23.075481,-83.648837,30.588929
03966,498038,8.606031,-0.853779,1.870828,0.118933,-0.247357,-0.015146,-0.614730,-0.126591,0.113656,-23.439550,-83.783205,31.024020
03967,498138,8.590770,-0.787547,1.946006,0.103342,-0.247150,-0.021411,-0.615256,-0.126655,0.115155,-23.799011,-83.918594,31.445396
03968,498238,8.660992,-0.743735,1.956806,0.085749,-0.244633,-0.029427,-0.614320,-0.128808,0.118052,-24.140510,-84.054246,31.838483
03969,498338,8.691121,-0.738769,1.962793,0.076230,-0.252067,-0.034864,-0.609826,-0.127859,0.117605,-24.494157,-84.194804,32.238216
03970,498438,8.756211,-0.842975,1.943495,0.071295,-0.259826,-0.045430,-0.610860,-0.128438,0.119578,-24.832793,-84.341672,32.619937
03971,498538,8.872589,-1.052651,1.855254,0.068072,-0.271217,-0.050405,-0.609852,-0.126935,0.119155,-25.194559,-84.495418,33.022962
03972,498638,9.013111,-1.193568,1.713166,0.066343,-0.271988,-0.052210,-0.606488,-0.128299,0.125603,-25.571368,-84.649745,33.440019
03973,498738,9.111924,-1.275236,1.609902,0.071673,-0.264977,-0.055560,-0.608014,-0.130341,0.127000,-25.930338,-84.801025,33.842145
03974,498838,9.238234,-1.259671,1.572208,0.072138,-0.236776,-0.059336,-0.604543,-0.128950,0.128077,-26.209031,-84.938528,34.163865
03975,498938,9.315781,-1.199452,1.481228,0.077718,-0.196396,-0.068131,-0.604564,-0.130493,0.129000,-26.329647,-85.057407,34.330069
03976,499038,9.292094,-1.130746,1.255867,0.084052,-0.167750,-0.078068,-0.604612,-0.131610,0.131449,-26.306960,-85.164082,34.356078
03977,499138,9.222522,-1.165087,1.095821,0.102524,-0.172989,-0.092577,-0.605103,-0.132574,0.130898,-26.199581,-85.277126,34.307730
03978,499238,9.351316,-1.275069,0.967993,0.141086,-0.196092,-0.107446,-0.601680,-0.132300,0.134423,-26.043352,-85.405792,34.232563
03979,499338,9.682116,-1.423934,0.948928,0.207257,-0.186526,-0.128639,-0.603687,-0.129825,0.135549,-25.671537,-85.534789,33.979199
03980,499438,10.367528,-1.435975,1.277943,0.299270,-0.113389,-0.160173,-0.602741,-0.131954,0.137947,-24.779186,-85.633345,33.256686
03981,499538,11.156133,-1.072693,2.133683,0.339570,0.046072,-0.210087,-0.603244,-0.134936,0.137794,-22.994034,-85.658608,31.662031
03982,499638,11.859213,-0.429879,3.246668,0.262247,0.220991,-0.284332,-0.599739,-0.134943,0.136796,-20.246209,-85.601537,29.057459
03983,499738,12.594342,0.295538,4.186642,0.084465,0.350331,-0.358351,-0.600782,-0.135546,0.139269,-16.877809,-85.477155,25.727970
03984,499838,13.451733,1.116129,4.779146,-0.110970,0.440369,-0.412741,-0.601738,-0.138897,0.136592,-13.291726,-85.295539,22.067068
03985,499938,13.669601,2.062273,4.685530,-0.240429,0.521687,-0.452922,-0.606179,-0.140699,0.133990,-9.704104,-85.054738,18.329080
03986,500038,13.649222,2.530586,3.712960,-0.270814,0.586146,-0.495117,-0.603668,-0.145648,0.132237,-6.178326,-84.761625,14.634182
03987,500138,13.196354,2.193085,2.425658,-0.222013,0.623034,-0.549491,-0.601653,-0.143140,0.131365,-2.688614,-84.430316,11.001730
03988,500238,12.768293,1.226990,1.476230,-0.142913,0.598033,-0.591177,-0.599133,-0.147568,0.129138,0.667036,-84.093933,7.547479
03989,500338,12.841490,0.323846,0.962492,-0.086661,0.511473,-0.599098,-0.598135,-0.146587,0.129189,3.749129,-83.788113,4.398719
03990,500438,13.168263,-0.792785,0.450154,-0.076380,0.384741,-0.555652,-0.597134,-0.149070,0.128563,6.392397,-83.540658,1.695747
03991,500538,13.332068,-1.847117,-0.250027,-0.067994,0.229572,-0.462603,-0.597165,-0.150637,0.129986,8.502747,-83.376163,-0.467073
03992,500638,12.986225,-2.240724,-1.034549,-0.053578,0.041854,-0.361143,-0.596174,-0.148684,0.130588,10.195152,-83.319190,-2.201278
03993,500738,12.439551,-1.976227,-1.392159,-0.071487,-0.146090,-0.284261,-0.594265,-0.148434,0.135112,11.666683,-83.370804,-3.723451
03994,500838,11.825653,-1.387857,-1.258317,-0.077644,-0.241781,-0.235877,-0.592811,-0.145589,0.137764,13.030409,-83.477545,-5.140416
03995,500938,10.866416,-0.811776,-0.992239,-0.037764,-0.259789,-0.222857,-0.593356,-0.145701,0.140263,14.421159,-83.592161,-6.561279
03996,501038,9.759585,-0.002199,-0.612010,0.011871,-0.287913,-0.249293,-0.593448,-0.144945,0.145311,16.063155,-83.714081,-8.206010
03997,501138,9.010614,0.791817,-0.243513,0.040107,-0.336308,-0.289270,-0.591004,-0.145604,0.147786,18.065994,-83.849956,-10.197057
03998,501238,8.052283,1.514375,0.347293,0.001029,-0.374284,-0.310498,-0.592533,-0.144181,0.149861,20.313527,-83.994300,-12.456200
03999,501338,7.466580,1.957406,0.833381,-0.123289,-0.383525,-0.306074,-0.590102,-0.146359,0.152759,22.593243,-84.134936,-14.818748
04000,501438,7.187556,2.172305,1.187826,-0.331808,-0.299969,-0.292903,-0.586652,-0.151469,0.154005,24.594557,-84.225478,-17.021080
04001,501538,6.965960,2.343937,1.113959,-0.499465,-0.153738,-0.299911,-0.590706,-0.153567,0.157401,26.225781,-84.231474,-18.947828
04002,501638,7.501284,1.857155,0.653756,-0.545720,0.115029,-0.232192,-0.587152,-0.157913,0.153175,26.799006,-84.113256,-19.837941
04003,501738,7.662786,1.394149,-0.151775,-0.518619,0.313121,-0.166733,-0.590641,-0.163813,0.152369,26.555393,-83.910206,-19.891407
04004,501838,7.742481,0.959990,-0.882835,-0.425736,0.328810,-0.106513,-0.590593,-0.168650,0.149117,26.053482,-83.714436,-19.631581
04005,501938,8.193553,0.736743,-1.072772,-0.302988,0.218142,-0.080262,-0.589528,-0.171463,0.144966,25.768143,-83.582094,-19.518845
04006,502038,9.146755,0.374861,-0.769043,-0.174499,0.101730,-0.067406,-0.590048,-0.173496,0.145864,25.758915,-83.512999,-19.609888
04007,502138,10.140549,-0.038292,-0.310416,-0.039158,0.055734,-0.064946,-0.591548,-0.176462,0.145711,25.915206,-83.468234,-19.789493
04008,502238,10.927454,-0.187122,-0.130571,0.079912,0.048011,-0.082811,-0.589577,-0.178036,0.146635,26.233810,-83.422868,-20.063826
04009,502338,11.431929,-0.115244,-0.207435,0.150536,0.038689,-0.115610,-0.589557,-0.182448,0.144907,26.753946,-83.373678,-20.500332
04010,502438,11.431057,0.190762,-0.253562,0.186731,0.017139,-0.144574,-0.592082,-0.185968,0.146228,27.462128,-83.327390,-21.105330
04011,502538,10.821474,0.490056,-0.174490,0.201447,-0.033993,-0.152557,-0.595085,-0.183976,0.147328,28.321580,-83.303908,-21.854200
04012,502638,10.185785,0.723365,0.284849,0.203540,-0.074384,-0.145854,-0.594584,-0.187448,0.146651,29.243820,-83.301209,-22.665114
04013,502738,9.650248,1.068542,0.832591,0.159924,-0.095934,-0.116910,-0.596112,-0.185528,0.148751,30.070620,-83.316001,-23.405095
04014,502838,9.137567,1.255140,1.300519,0.088741,-0.087258,-0.079003,-0.593636,-0.188580,0.149099,30.678514,-83.336403,-23.965722
04015,502938,8.768963,1.389737,1.509061,-0.011410,-0.060064,-0.031090,-0.598602,-0.190446,0.147996,30.961577,-83.356977,-24.257070
04016,503038,8.456796,1.444035,1.519538,-0.114297,-0.025005,0.015716,-0.597636,-0.191530,0.149445,30.900334,-83.374034,-24.261137
04017,503138,8.135037,1.415908,1.345155,-0.194585,0.003820,0.051251,-0.598171,-0.191619,0.151444,30.569085,-83.387297,-24.039705
04018,503238,8.002839,1.240544,1.125702,-0.235659,0.008429,0.078202,-0.599590,-0.190904,0.147470,30.086330,-83.405893,-23.689463
04019,503338,8.106671,0.947501,0.938516,-0.241537,0.007669,0.103646,-0.602090,-0.190889,0.147970,29.489747,-83.431728,-23.228051
04020,503438,8.244282,0.655024,0.748640,-0.225042,-0.003670,0.118719,-0.605121,-0.193927,0.149816,28.860000,-83.466879,-22.723776
04021,503538,8.465348,0.487312,0.742033,-0.196137,-0.021319,0.127096,-0.607068,-0.194273,0.147290,28.245779,-83.512581,-22.218502
04022,503638,8.692653,0.470866,0.844975,-0.169525,-0.036655,0.125826,-0.607545,-0.192723,0.146367,27.680887,-83.565110,-21.747576
04023,503738,8.928702,0.524016,0.958066,-0.148116,-0.049640,0.123437,-0.607558,-0.194740,0.146765,27.161123,-83.623109,-21.309771
04024,503838,9.092980,0.728108,1.040834,-0.128664,-0.056772,0.119343,-0.610074,-0.193776,0.148315,26.679322,-83.683259,-20.899002
04025,503938,9.197170,0.952004,1.164266,-0.113531,-0.047528,0.116700,-0.609994,-0.195552,0.143715,26.188757,-83.737604,-20.470744
04026,504038,9.199417,1.128127,1.275377,-0.102333,-0.033629,0.111719,-0.610524,-0.192651,0.145866,25.688525,-83.783128,-20.026355
04027,504138,9.200783,1.194986,1.414186,-0.092670,-0.009353,0.106600,-0.616522,-0.193601,0.146813,25.156766,-83.814390,-19.544725
04028,504238,9.262573,1.245575,1.526362,-0.084075,0.021107,0.109602,-0.616031,-0.192138,0.147389,24.543084,-83.830014,-18.975768
04029,504338,9.292072,1.301917,1.656862,-0.076325,0.061278,0.115932,-0.615990,-0.190049,0.145492,23.813933,-83.825402,-18.286214
04030,504438,9.116735,1.282148,1.655165,-0.076281,0.093526,0.123250,-0.615010,-0.194075,0.145788,22.983679,-83.804485,-17.494932
04031,504538,9.014766,1.156638,1.653510,-0.068906,0.079062,0.131690,-0.617464,-0.188981,0.144542,22.150861,-83.791838,-16.696799
04032,504638,8.958853,1.021687,1.722631,-0.077583,0.051188,0.138315,-0.616479,-0.190017,0.144992,21.337478,-83.794190,-15.923211
04033,504738,8.913378,0.885368,1.806845,-0.085810,0.015945,0.143086,-0.621911,-0.189312,0.142516,20.560693,-83.815213,-15.191194
04034,504838,8.903593,0.782449,1.956935,-0.084370,-0.006218,0.151081,-0.621458,-0.188941,0.145041,19.779641,-83.848655,-14.454090
04035,504938,8.970554,0.708212,1.965920,-0.081768,0.013771,0.160257,-0.621437,-0.187399,0.144118,18.910884,-83.871885,-13.627309
04036,505038,8.914630,0.617378,1.834486,-0.071935,0.041745,0.174039,-0.622450,-0.186435,0.145168,17.925135,-83.880964,-12.677219
04037,505138,8.817294,0.623416,1.751379,-0.050146,0.052344,0.184496,-0.624465,-0.183486,0.146819,16.879264,-83.884240,-11.654115
04038,505238,8.723329,0.691503,1.699627,-0.032760,0.044946,0.189457,-0.624429,-0.183888,0.144794,15.827850,-83.890383,-10.615426
04039,505338,8.713479,0.684931,1.667484,-0.012133,0.020013,0.195335,-0.623429,-0.181911,0.144896,14.790153,-83.909176,-9.578669
04040,505438,8.792774,0.630067,1.656966,0.013169,0.002959,0.202101,-0.624962,-0.182980,0.146844,13.747326,-83.936387,-8.522219
04041,505538,8.921374,0.550001,1.657876,0.053228,0.004973,0.212630,-0.625388,-0.178818,0.143549,12.660367,-83.961769,-7.398357
04042,505638,9.064956,0.525059,1.677838,0.087996,0.023515,0.225079,-0.625420,-0.180883,0.144947,11.498076,-83.975921,-6.178752
04043,505738,9.257223,0.558037,1.701228,0.103382,0.048503,0.231195,-0.627449,-0.175491,0.147724,10.282609,-83.974011,-4.896823
04044,505838,9.351953,0.672388,1.816330,0.097767,0.064660,0.231473,-0.627466,-0.174542,0.148775,9.050098,-83.960125,-3.600971
04045,505938,9.459139,0.800532,1.955175,0.085071,0.068617,0.222487,-0.629412,-0.174391,0.146275,7.861907,-83.940362,-2.356964
04046,506038,9.558003,0.938292,2.156972,0.069772,0.071482,0.205783,-0.632436,-0.173443,0.148324,6.760820,-83.915133,-1.209316
04047,506138,9.750324,1.026708,2.238476,0.065862,0.101588,0.189818,-0.632379,-0.172800,0.145351,5.736193,-83.869510,-0.140746
04048,506238,9.936062,1.064768,2.346085,0.065981,0.161363,0.176603,-0.635872,-0.170776,0.145951,4.770978,-83.787116,0.868260
04049,506338,10.087006,1.002570,2.477118,0.074234,0.232104,0.171040,-0.633377,-0.173781,0.145299,3.840970,-83.662276,1.846801
04050,506438,10.221952,0.885789,2.757796,0.100635,0.288402,0.169681,-0.634361,-0.172246,0.144876,2.955393,-83.503506,2.796125
04051,506538,10.444047,0.689657,3.138736,0.148484,0.328170,0.179071,-0.636808,-0.173581,0.142300,2.087835,-83.320596,3.755240
04052,506638,10.582598,0.488235,3.600190,0.206769,0.363160,0.196493,-0.634277,-0.166573,0.141157,1.215809,-83.116276,4.752880
04053,506738,10.838128,0.288858,4.113253,0.263075,0.410952,0.223511,-0.640775,-0.168511,0.142053,0.304298,-82.882959,5.823288
04054,506838,11.376120,-0.185902,4.300852,0.307057,0.513736,0.270491,-0.638728,-0.163939,0.139783,-0.721443,-82.588465,7.034903
04055,506938,12.076926,-0.808358,4.088861,0.362983,0.623013,0.331812,-0.640644,-0.162718,0.135835,-1.873453,-82.227705,8.407167
04056,507038,12.475908,-1.023406,3.344840,0.399664,0.707030,0.390435,-0.644104,-0.158130,0.135063,-3.108253,-81.813682,9.885550
04057,507138,12.734991,-0.740481,2.546405,0.389593,0.770741,0.419610,-0.649504,-0.154861,0.131215,-4.309169,-81.357881,11.325479
04058,507238,13.259169,-0.433177,1.633631,0.375865,0.806677,0.434247,-0.650887,-0.149590,0.125971,-5.424780,-80.876694,12.672895
04059,507338,13.981547,-0.017795,0.346527,0.374723,0.701186,0.445573,-0.653343,-0.145991,0.124649,-6.496664,-80.451081,13.977023
04060,507438,14.798629,0.745735,-1.146969,0.315027,0.459605,0.424322,-0.655336,-0.140503,0.125427,-7.536450,-80.160538,15.215206
04061,507538,14.738718,1.366973,-2.131766,0.244028,0.195999,0.364274,-0.658760,-0.136816,0.122605,-8.486285,-80.020808,16.321507
04062,507638,13.671782,1.235377,-2.107436,0.192810,-0.021799,0.278563,-0.660230,-0.133256,0.121783,-9.278668,-80.009102,17.238323
04063,507738,12.594888,0.642368,-1.668091,0.132214,-0.190416,0.213459,-0.662233,-0.128789,0.123010,-9.990830,-80.096821,18.038282
04064,507838,11.851877,-0.089106,-1.312727,0.081064,-0.319978,0.190698,-0.662256,-0.126370,0.124637,-10.752050,-80.258142,18.857945
04065,507938,10.854396,-0.608506,-1.107482,0.035037,-0.439918,0.203602,-0.661244,-0.122376,0.124340,-11.691799,-80.483353,19.831438
04066,508038,9.772513,-0.974756,-0.651126,0.022812,-0.564348,0.224026,-0.659826,-0.118630,0.129042,-12.851375,-80.772735,21.019889
04067,508138,8.870668,-1.222187,-0.067938,0.056458,-0.619672,0.233354,-0.658895,-0.113857,0.133295,-14.148974,-81.087486,22.366617
04068,508238,8.022546,-1.647349,0.253630,0.105876,-0.575393,0.235825,-0.660897,-0.113849,0.133794,-15.477762,-81.372401,23.772461
04069,508338,7.159129,-1.862738,0.429173,0.168153,-0.469620,0.238507,-0.659405,-0.109413,0.134523,-16.753249,-81.593718,25.159569
04070,508438,6.609580,-1.933349,0.560083,0.243696,-0.340450,0.231880,-0.658938,-0.106528,0.136675,-17.872452,-81.741159,26.431838
04071,508538,6.586622,-1.829423,0.598166,0.334083,-0.183677,0.212719,-0.659941,-0.105041,0.137251,-18.706345,-81.803587,27.467841
04072,508638,6.866605,-1.579540,0.564345,0.409203,-0.046799,0.198968,-0.661957,-0.102591,0.138877,-19.276970,-81.792597,28.281293
04073,508738,7.379635,-1.159695,0.528760,0.456387,0.018040,0.190609,-0.661927,-0.101024,0.137454,-19.700197,-81.747177,28.973196
04074,508838,8.084783,-0.600090,0.576091,0.467192,0.028515,0.179518,-0.664879,-0.101378,0.135428,-20.056019,-81.697602,29.603324
04075,508938,8.851063,0.042044,0.607415,0.452374,0.030278,0.164770,-0.668847,-0.096807,0.135155,-20.358094,-81.649482,30.170616
04076,509038,9.474935,0.796687,0.424890,0.404228,0.024179,0.141323,-0.666864,-0.097361,0.135631,-20.605922,-81.608947,30.655231
04077,509138,10.101462,1.325801,0.170372,0.319245,0.004221,0.114541,-0.669823,-0.096245,0.134181,-20.829614,-81.584254,31.066228
04078,509238,10.668705,1.434448,-0.206469,0.216291,-0.018655,0.081173,-0.664863,-0.097368,0.135131,-21.021872,-81.578424,31.385787
04079,509338,10.956351,1.101226,-0.567035,0.107439,-0.049309,0.046576,-0.670295,-0.097161,0.132631,-21.194303,-81.595978,31.622206
04080,509438,10.955109,0.487732,-0.652732,0.014284,-0.092751,0.009295,-0.668276,-0.097619,0.131106,-21.347548,-81.644386,31.785225
04081,509538,10.893062,-0.243958,-0.415065,-0.074118,-0.130468,-0.021902,-0.671264,-0.097073,0.131131,-21.493706,-81.719384,31.889845
04082,509638,10.514654,-0.809611,-0.012100,-0.143932,-0.155795,-0.025168,-0.667247,-0.100029,0.128980,-21.707452,-81.808519,32.022313
04083,509738,10.021057,-1.224241,0.425615,-0.191509,-0.179273,-0.003321,-0.667763,-0.099571,0.130005,-22.069359,-81.905374,32.276888
04084,509838,9.681106,-1.365479,0.855215,-0.221979,-0.189352,0.028799,-0.667705,-0.098430,0.127057,-22.593017,-82.000296,32.677145
04085,509938,9.379704,-1.352957,1.042203,-0.234445,-0.176898,0.063082,-0.666759,-0.100559,0.129455,-23.244726,-82.080413,33.199417
04086,510038,8.990644,-1.298554,1.246205,-0.223834,-0.180918,0.086853,-0.667697,-0.099403,0.126507,-23.999437,-82.156286,33.831731
04087,510138,8.741198,-1.240314,1.294198,-0.202748,-0.192482,0.101603,-0.666250,-0.100045,0.128981,-24.832035,-82.233487,34.554756
04088,510238,8.602353,-1.135141,1.291421,-0.177183,-0.210845,0.111994,-0.667192,-0.100881,0.125931,-25.738878,-82.316156,35.367367
04089,510338,8.612981,-0.999520,1.318573,-0.141817,-0.219075,0.123460,-0.665213,-0.102930,0.126330,-26.703662,-82.398354,36.258742
04090,510438,8.731621,-0.811171,1.296338,-0.114320,-0.204818,0.129845,-0.667706,-0.104385,0.126253,-27.668459,-82.469604,37.165873
04091,510538,8.621969,-0.615974,1.305018,-0.095752,-0.178798,0.125145,-0.664200,-0.103894,0.125280,-28.567704,-82.527018,38.017492
04092,510638,8.625096,-0.509789,1.301732,-0.106521,-0.149883,0.108745,-0.666174,-0.104312,0.124254,-29.361200,-82.572836,38.756143
04093,510738,8.552300,-0.471249,1.185730,-0.131854,-0.125556,0.090031,-0.668649,-0.105719,0.123178,-30.053139,-82.610614,39.377681
04094,510838,8.475390,-0.534183,1.020240,-0.164897,-0.128930,0.076987,-0.666631,-0.106675,0.121628,-30.728546,-82.652880,39.963406
04095,510938,8.390751,-0.615238,0.960058,-0.185639,-0.165471,0.067281,-0.664145,-0.109704,0.121476,-31.471201,-82.715011,40.604885
04096,511038,8.529726,-0.758422,1.016435,-0.197897,-0.193015,0.061400,-0.666617,-0.109616,0.120476,-32.276598,-82.791214,41.302440
04097,511138,8.588864,-0.901814,1.136952,-0.204697,-0.194011,0.054144,-0.663145,-0.112685,0.120824,-33.076453,-82.868898,41.990376
04098,511238,8.769114,-1.067720,1.309899,-0.231654,-0.163725,0.041880,-0.665076,-0.114478,0.117223,-33.783013,-82.934832,42.568638
04099,511338,8.857358,-1.177895,1.451459,-0.274246,-0.105003,0.028542,-0.664604,-0.118520,0.118020,-34.320461,-82.976385,42.951864
04100,511438,8.832038,-1.226695,1.491010,-0.310570,-0.045085,0.012987,-0.662546,-0.118383,0.114522,-34.665243,-82.994322,43.119996
04101,511538,8.883769,-1.245620,1.432171,-0.331235,-0.012048,-0.005374,-0.663033,-0.122811,0.113293,-34.864622,-83.002607,43.129717
04102,511638,9.008960,-1.300199,1.348603,-0.338913,-0.006162,-0.022717,-0.662495,-0.126186,0.110617,-34.986438,-83.013808,43.056879
04103,511738,9.119618,-1.380976,1.209745,-0.335751,-0.020746,-0.031889,-0.661920,-0.125005,0.106669,-35.110539,-83.034884,42.988189
04104,511838,9.130946,-1.524565,1.086530,-0.308855,-0.042365,-0.034292,-0.662436,-0.129505,0.106941,-35.268746,-83.066894,42.969402
04105,511938,9.074029,-1.646180,1.014270,-0.258129,-0.058103,-0.033915,-0.660891,-0.132373,0.103789,-35.443069,-83.106136,42.996147
04106,512038,9.090224,-1.797673,0.995077,-0.195125,-0.056722,-0.031853,-0.662311,-0.132157,0.099791,-35.586536,-83.144035,43.028191
04107,512138,9.137898,-1.916166,1.016370,-0.129830,-0.053060,-0.025787,-0.661811,-0.136625,0.099062,-35.706873,-83.178192,43.074639
04108,512238,9.267726,-1.931534,1.168020,-0.079401,-0.037435,-0.017658,-0.660844,-0.137211,0.100537,-35.786902,-83.202348,43.109613
04109,512338,9.555227,-1.880942,1.295054,-0.041688,-0.001156,-0.018289,-0.662314,-0.139108,0.098935,-35.741049,-83.209842,43.039598
04110,512438,9.871883,-1.783922,1.496015,-0.006952,0.051572,-0.024536,-0.662841,-0.139671,0.100409,-35.503168,-83.194839,42.796262
04111,512538,10.134634,-1.674921,1.679089,0.011522,0.110235,-0.037961,-0.664254,-0.140925,0.095834,-35.041768,-83.156657,42.338479
04112,512638,10.242609,-1.586767,1.673014,0.031557,0.162018,-0.057897,-0.664231,-0.143842,0.094182,-34.357171,-83.100037,41.667423
04113,512738,10.334825,-1.498514,1.762876,0.075733,0.215352,-0.077005,-0.666206,-0.144260,0.093157,-33.445559,-83.023043,40.793099
04114,512838,10.492880,-1.407514,1.949196,0.146074,0.280213,-0.096071,-0.667158,-0.145619,0.090581,-32.278440,-82.918851,39.701789
04115,512938,10.591773,-1.265513,2.082337,0.219520,0.341651,-0.120637,-0.669622,-0.146005,0.089055,-30.863481,-82.789046,38.402852
04116,513038,10.631266,-1.008393,2.356237,0.270618,0.391629,-0.145194,-0.668048,-0.148304,0.084431,-29.264103,-82.637294,36.947120
04117,513138,10.654324,-0.751050,2.853500,0.272725,0.434984,-0.179358,-0.669027,-0.148738,0.083405,-27.507503,-82.467641,35.333534
04118,513238,10.733984,-0.490727,3.414206,0.226645,0.493356,-0.212129,-0.671492,-0.150121,0.081829,-25.620284,-82.269893,33.560858
04119,513338,10.921303,-0.194805,3.830145,0.153279,0.579788,-0.249403,-0.673448,-0.155449,0.079050,-23.584564,-82.028050,31.594935
04120,513438,11.190370,0.038746,3.935800,0.074415,0.690525,-0.293613,-0.673370,-0.153264,0.075153,-21.389611,-81.727498,29.421233
04121,513538,11.335255,0.145954,3.646942,0.026017,0.791879,-0.332261,-0.672315,-0.157097,0.071451,-19.112861,-81.368353,27.134987
04122,513638,11.237148,0.095066,3.032460,0.015278,0.834091,-0.358722,-0.674200,-0.159267,0.065326,-16.891133,-80.977974,24.895925
04123,513738,11.082282,-0.159476,2.508272,0.029095,0.792430,-0.372377,-0.672654,-0.161139,0.062226,-14.840311,-80.600169,22.835635
04124,513838,11.150413,-0.413500,2.001524,0.062278,0.710215,-0.372125,-0.672072,-0.166387,0.056949,-12.993789,-80.257074,20.999656
04125,513938,11.610941,-0.568606,1.456676,0.071175,0.636827,-0.361145,-0.670061,-0.171329,0.055196,-11.350016,-79.944631,19.372853
04126,514038,12.028246,-0.773648,0.684326,0.037452,0.556182,-0.334051,-0.666999,-0.172180,0.051148,-9.951898,-79.667432,17.974512
04127,514138,11.993701,-0.972676,-0.465366,-0.002776,0.437971,-0.287968,-0.668434,-0.174977,0.047496,-8.844892,-79.447417,16.847621
04128,514238,11.930813,-1.248989,-1.378169,0.016638,0.233659,-0.259607,-0.666941,-0.175997,0.047446,-7.942279,-79.337310,15.939363
04129,514338,11.861687,-0.867012,-1.092830,0.031055,0.025695,-0.249165,-0.664974,-0.180063,0.048243,-7.159329,-79.342105,15.161088
04130,514438,11.632053,-0.424271,-0.273557,0.036622,-0.127446,-0.264356,-0.665972,-0.181043,0.048192,-6.378447,-79.433103,14.388262
04131,514538,11.154634,0.023128,0.392847,0.036552,-0.217046,-0.286940,-0.663545,-0.185213,0.050988,-5.541443,-79.574493,13.558587
04132,514638,10.272991,0.505280,0.729722,0.027629,-0.271373,-0.306799,-0.659025,-0.185686,0.048965,-4.638272,-79.745591,12.656848
04133,514738,9.251365,0.938184,0.959221,-0.017357,-0.338116,-0.311359,-0.657554,-0.188249,0.049838,-3.730014,-79.952443,11.724269
04134,514838,8.315250,1.241224,1.126903,-0.114157,-0.407750,-0.314957,-0.657119,-0.192388,0.052634,-2.838744,-80.196642,10.753255
04135,514938,7.611609,1.478991,1.155253,-0.247780,-0.438642,-0.312258,-0.655684,-0.194548,0.055531,-1.990412,-80.455893,9.748843
04136,515038,7.105902,1.567767,1.089528,-0.405558,-0.390555,-0.285139,-0.653689,-0.203998,0.054050,-1.273901,-80.684829,8.787110
04137,515138,6.589771,1.649464,0.896114,-0.577635,-0.260729,-0.248821,-0.651655,-0.206401,0.051424,-0.740585,-80.837292,7.911587
04138,515238,6.689543,1.334508,0.595047,-0.682763,-0.103020,-0.200754,-0.652142,-0.215787,0.049442,-0.415773,-80.898063,7.186474
04139,515338,7.155441,0.890188,0.231069,-0.671758,0.023012,-0.151510,-0.653509,-0.222377,0.041589,-0.254443,-80.885972,6.633343
04140,515438,7.865748,0.464739,0.005156,-0.590537,0.105938,-0.090937,-0.653398,-0.227545,0.034812,-0.263133,-80.826099,6.299478
04141,515538,8.701699,0.182874,-0.022996,-0.489398,0.138698,-0.047809,-0.655804,-0.232247,0.029559,-0.367731,-80.747378,6.121400
04142,515638,9.712984,-0.101974,0.170961,-0.374163,0.130916,-0.029814,-0.655817,-0.239222,0.029204,-0.470137,-80.673097,6.007954
04143,515738,10.698011,-0.400127,0.470759,-0.233402,0.122206,-0.021646,-0.661122,-0.245628,0.018850,-0.520820,-80.603794,5.923796
04144,515838,11.463157,-0.579495,0.563506,-0.092159,0.117038,-0.023508,-0.662584,-0.248498,0.016698,-0.484877,-80.537466,5.833844
04145,515938,11.996513,-0.706107,0.338449,0.016304,0.079665,-0.034213,-0.664040,-0.252838,0.013970,-0.352144,-80.492580,5.708748
04146,516038,12.076353,-0.656115,0.118111,0.079803,0.030574,-0.045054,-0.666498,-0.255691,0.011817,-0.147914,-80.475794,5.548030
04147,516138,11.569666,-0.559063,0.124476,0.101155,-0.001551,-0.054434,-0.669456,-0.258537,0.009665,0.100000,-80.477317,5.355414
04148,516238,10.762742,-0.490672,0.421505,0.096447,-0.057502,-0.067740,-0.670410,-0.261390,0.007013,0.391954,-80.510719,5.115416
04149,516338,10.019778,-0.377623,1.042422,0.089090,-0.142434,-0.074135,-0.674889,-0.264284,0.006359,0.707032,-80.592537,4.847745
04150,516438,9.610172,-0.238399,1.621282,0.040579,-0.204475,-0.060038,-0.675865,-0.263224,0.005410,0.953675,-80.709798,4.621347
04151,516538,9.391107,-0.043248,1.971248,-0.027885,-0.210179,-0.018217,-0.680324,-0.265073,0.003808,1.018893,-80.830636,4.539098
04152,516638,9.161776,0.291881,1.987987,-0.109311,-0.175951,0.019214,-0.679795,-0.268472,0.001631,0.902483,-80.932228,4.593578
04153,516738,8.786136,0.548884,1.756159,-0.185725,-0.106411,0.045399,-0.684241,-0.268305,-0.000370,0.642008,-80.994151,4.749585
04154,516838,8.400053,0.653168,1.453115,-0.211359,-0.048966,0.058727,-0.687650,-0.271520,-0.005047,0.314069,-81.023097,4.958999
04155,516938,8.323338,0.614048,1.259446,-0.198602,-0.013009,0.067038,-0.693050,-0.273708,-0.009674,-0.038538,-81.031258,5.200767
04156,517038,8.445295,0.410679,1.121429,-0.147231,-0.002892,0.074097,-0.697500,-0.270575,-0.011022,-0.387646,-81.033375,5.468779
04157,517138,8.561491,0.140762,1.086889,-0.068282,-0.038081,0.076001,-0.702409,-0.271798,-0.015098,-0.700088,-81.055402,5.745454
04158,517238,8.733198,-0.062756,1.139489,-0.001593,-0.099566,0.078249,-0.702358,-0.274145,-0.018224,-0.987802,-81.112409,6.035747
04159,517338,8.947164,-0.146685,1.192368,0.038688,-0.159169,0.072831,-0.709765,-0.274356,-0.021751,-1.240927,-81.203405,6.314335
04160,517438,9.039503,-0.090183,1.239759,0.066623,-0.198469,0.060127,-0.714215,-0.271223,-0.023099,-1.439746,-81.316913,6.554100
04161,517538,9.052807,0.107499,1.313440,0.088555,-0.212075,0.034595,-0.721688,-0.272101,-0.023152,-1.536101,-81.438500,6.702862
04162,517638,8.955248,0.362683,1.361489,0.098416,-0.214898,0.008758,-0.729167,-0.270512,-0.022578,-1.530868,-81.562080,6.754570
04163,517738,8.822338,0.551161,1.366054,0.080186,-0.227185,-0.012723,-0.732632,-0.268914,-0.023503,-1.453904,-81.693023,6.723191
04164,517838,8.682250,0.645025,1.443079,0.055303,-0.249043,-0.024305,-0.736702,-0.269565,-0.019031,-1.345470,-81.836639,6.645613
04165,517938,8.626971,0.717166,1.610350,0.042923,-0.263053,-0.018969,-0.742646,-0.265911,-0.020355,-1.263815,-81.988190,6.587941
04166,518038,8.658241,0.776821,1.745456,0.028103,-0.234336,-0.007251,-0.749121,-0.260850,-0.019603,-1.234067,-82.123135,6.574120
04167,518138,8.758942,0.843437,1.737489,0.014223,-0.176227,0.001443,-0.757597,-0.259743,-0.019055,-1.242859,-82.224683,6.591171
04168,518238,8.841136,0.844605,1.690811,0.001962,-0.132376,0.013152,-0.762092,-0.255734,-0.017853,-1.304570,-82.300959,6.654526
04169,518338,8.856019,0.847590,1.561489,0.010655,-0.122510,0.024636,-0.769551,-0.253599,-0.018254,-1.410607,-82.371414,6.767613
04170,518438,8.910970,0.914674,1.479266,0.031066,-0.152865,0.026601,-0.772051,-0.248625,-0.017001,-1.518892,-82.459197,6.894734
04171,518538,9.190518,0.913846,1.538554,0.045701,-0.196725,0.023648,-0.781507,-0.243991,-0.016775,-1.614017,-82.572115,7.017000
04172,518638,9.541603,0.836832,1.685386,0.052488,-0.222212,0.016923,-0.782548,-0.237643,-0.013446,-1.681932,-82.699716,7.115709
04173,518738,9.787609,0.762462,1.762504,0.043296,-0.236595,0.006261,-0.793069,-0.235154,-0.009824,-1.711564,-82.835722,7.170486
04174,518838,9.872943,0.720841,1.821455,0.014063,-0.234516,-0.004882,-0.792552,-0.229657,-0.010044,-1.707682,-82.970724,7.174591
04175,518938,9.859892,0.598320,1.935483,-0.013246,-0.198493,-0.015959,-0.798068,-0.229168,-0.008021,-1.662195,-83.085279,7.121017
04176,519038,9.878633,0.271128,2.026767,-0.004278,-0.117053,-0.012191,-0.801055,-0.223166,-0.007218,-1.616927,-83.153122,7.072856
04177,519138,9.891827,-0.088092,1.883811,0.040290,-0.007584,-0.003362,-0.806010,-0.218555,-0.007990,-1.573020,-83.158119,7.051802
04178,519238,9.904844,-0.290997,1.690885,0.090949,0.080063,0.002521,-0.808538,-0.213654,-0.005238,-1.516870,-83.112821,7.047665
04179,519338,9.270395,-0.631946,1.656118,0.146643,0.116451,0.013901,-0.814441,-0.208408,-0.008484,-1.478390,-83.046508,7.093491
04180,519438,9.622777,-0.566718,1.687939,0.178400,0.149925,0.008845,-0.815419,-0.203386,-0.008730,-1.394295,-82.961099,7.111719
04181,519538,9.555279,-0.595464,2.049744,0.230131,0.175751,0.019684,-0.817847,-0.199216,-0.011527,-1.328337,-82.860748,7.178117
04182,519638,9.365054,-0.677900,2.440390,0.242194,0.206628,0.036788,-0.821897,-0.193865,-0.007250,-1.329252,-82.742484,7.318931
04183,519738,9.327086,-0.511064,2.778383,0.190930,0.232622,0.067600,-0.823916,-0.193407,-0.005726,-1.490286,-82.608866,7.591636
