PacketCounter,SampleTimeFine,Acc_X,Acc_Y,Acc_Z,Gyr_X,Gyr_Y,Gyr_Z,Mag_X,Mag_Y,Mag_Z,Roll,Pitch,Yaw
08948,1143448,9.386227,0.102722,0.480433,0.101023,-0.116264,-0.129268,-0.545122,-0.046954,0.374829,-164.613745,-85.549088,176.308213
08949,1143548,9.468671,0.048798,0.502056,0.071879,-0.147351,-0.143458,-0.543161,-0.049051,0.376227,-165.874478,-85.488819,177.614051
08950,1143648,9.521628,-0.037286,0.627547,0.058382,-0.161541,-0.151800,-0.542636,-0.049485,0.374702,-167.189220,-85.419498,178.966444
08951,1143748,9.562358,-0.097206,0.731719,0.040353,-0.163373,-0.157655,-0.541684,-0.053583,0.376499,-168.516735,-85.347426,-179.678554
08952,1143848,9.653356,-0.094261,0.684966,0.021297,-0.158020,-0.166518,-0.541687,-0.055077,0.376423,-169.867417,-85.276811,-178.311100
08953,1143948,9.723507,-0.076963,0.674662,0.012144,-0.141782,-0.172235,-0.536210,-0.056659,0.376348,-171.204189,-85.213334,-176.962710
08954,1144048,9.776600,-0.022619,0.691111,0.000250,-0.132043,-0.176211,-0.535698,-0.059608,0.375196,-172.529976,-85.153145,-175.632037
08955,1144148,9.814387,-0.019520,0.669359,-0.009607,-0.125834,-0.181770,-0.537223,-0.061152,0.376619,-173.860565,-85.094315,-174.302074
08956,1144248,9.982273,0.074388,0.772559,-0.025021,-0.120325,-0.191389,-0.531301,-0.065851,0.378891,-175.227933,-85.036531,-172.943923
08957,1144348,10.121957,0.124234,0.935910,-0.048433,-0.113199,-0.199172,-0.528274,-0.065304,0.376918,-176.624473,-84.980363,-171.569817
08958,1144448,10.304815,0.183566,1.060800,-0.076149,-0.096666,-0.203638,-0.530282,-0.068784,0.377240,-178.030500,-84.930899,-170.201996
08959,1144548,10.419939,0.295889,1.194347,-0.101082,-0.073024,-0.209191,-0.526302,-0.071836,0.377089,-179.457226,-84.892124,-168.827627
08960,1144648,10.497715,0.374544,1.232237,-0.123259,-0.048484,-0.220368,-0.525778,-0.072768,0.375538,179.051678,-84.864329,-167.401303
08961,1144748,10.589601,0.374303,1.214070,-0.140396,-0.028365,-0.229836,-0.524784,-0.079237,0.374709,177.501922,-84.844557,-165.925874
08962,1144848,10.620450,0.311218,1.209096,-0.157663,-0.007358,-0.238134,-0.520805,-0.077830,0.375286,175.893084,-84.832922,-164.400998
08963,1144948,10.563298,0.152911,1.152197,-0.169672,0.011270,-0.244677,-0.522258,-0.080177,0.372660,174.232682,-84.827722,-162.831203
08964,1145048,10.432655,0.010472,1.087221,-0.167506,0.020242,-0.253390,-0.518269,-0.083205,0.372008,172.516107,-84.822918,-161.203701
08965,1145148,10.395310,-0.126994,1.056183,-0.159163,0.038554,-0.253878,-0.516793,-0.088734,0.372229,170.787375,-84.824076,-159.559129
08966,1145248,10.536874,-0.216689,0.921048,-0.147913,0.067555,-0.255407,-0.514810,-0.088789,0.372730,169.021539,-84.836945,-157.870783
08967,1145348,10.626487,-0.282107,0.712361,-0.144592,0.086450,-0.250876,-0.515314,-0.092269,0.372552,167.252282,-84.856272,-156.177066
08968,1145448,10.599557,-0.393094,0.463814,-0.142986,0.078533,-0.237315,-0.511774,-0.093674,0.369478,165.568994,-84.868447,-154.568708
08969,1145548,10.635913,-0.507006,0.213942,-0.113280,0.058997,-0.218977,-0.513753,-0.096086,0.368351,164.043342,-84.868556,-153.101465
08970,1145648,10.732326,-0.619334,-0.022781,-0.069223,0.033358,-0.199453,-0.511771,-0.102096,0.368047,162.711426,-84.854532,-151.803292
08971,1145748,10.904365,-0.691377,-0.288549,-0.029811,0.009075,-0.178754,-0.513254,-0.101052,0.367597,161.583234,-84.828422,-150.686866
08972,1145848,11.162237,-0.735895,-0.548226,-0.006254,-0.005568,-0.156300,-0.511263,-0.107038,0.366793,160.644305,-84.796743,-149.746785
08973,1145948,11.383032,-0.694727,-0.822030,0.009677,-0.017225,-0.134144,-0.510269,-0.108549,0.366717,159.881392,-84.761812,-148.974152
08974,1146048,11.598798,-0.650556,-1.039700,0.026854,-0.023276,-0.110620,-0.509228,-0.109441,0.364167,159.288623,-84.727508,-148.362375
08975,1146148,11.747679,-0.602955,-1.263187,0.056197,-0.031779,-0.092583,-0.513319,-0.111635,0.369563,158.843309,-84.691839,-147.881691
08976,1146248,11.839712,-0.557857,-1.379554,0.077794,-0.064072,-0.081049,-0.512803,-0.112093,0.368537,158.554846,-84.641048,-147.546010
08977,1146348,12.028301,-0.550095,-1.184031,0.079867,-0.091414,-0.072293,-0.511794,-0.110092,0.368140,158.383824,-84.577400,-147.326992
08978,1146448,12.106588,-0.528243,-0.723455,0.065101,-0.082862,-0.059365,-0.513805,-0.115067,0.368385,158.261746,-84.520997,-147.165534
08979,1146548,12.020961,-0.330414,-0.443110,0.052022,-0.039577,-0.044029,-0.516241,-0.115879,0.365335,158.123886,-84.490858,-146.995665
08980,1146648,11.747887,0.004593,-0.302590,0.021162,0.013384,-0.033786,-0.517753,-0.114907,0.366385,157.908446,-84.491015,-146.765569
08981,1146748,11.376150,0.275275,-0.368088,-0.030357,0.058171,-0.020967,-0.519737,-0.115848,0.365833,157.632688,-84.517617,-146.504517
08982,1146848,11.024061,0.444639,-0.482082,-0.079482,0.116072,-0.015530,-0.522642,-0.115584,0.361334,157.221828,-84.575902,-146.136040
08983,1146948,10.659076,0.567896,-0.763489,-0.130091,0.164166,-0.005725,-0.526670,-0.118606,0.363180,156.712531,-84.661460,-145.697878
08984,1147048,10.127302,0.716083,-1.168055,-0.173573,0.173718,0.005195,-0.529594,-0.118889,0.359654,156.201084,-84.754157,-145.282682
08985,1147148,9.665853,0.786210,-1.618377,-0.208233,0.158156,0.005364,-0.533068,-0.121774,0.358502,155.694621,-84.838392,-144.892549
08986,1147248,9.215755,0.825813,-2.005322,-0.233781,0.133649,-0.000294,-0.536999,-0.122563,0.355451,155.191654,-84.908170,-144.520744
08987,1147348,8.824406,0.863361,-2.284199,-0.259099,0.095893,-0.006169,-0.537987,-0.123520,0.354900,154.732190,-84.956615,-144.207293
08988,1147448,8.544287,0.968125,-2.371294,-0.284867,0.056680,-0.014113,-0.539447,-0.124894,0.352824,154.314626,-84.982577,-143.950840
08989,1147548,8.381255,1.075644,-2.361753,-0.312412,0.029651,-0.022856,-0.543956,-0.128857,0.353619,153.904010,-84.992225,-143.717316
08990,1147648,8.314588,1.173714,-2.257703,-0.347522,0.015344,-0.024209,-0.541864,-0.130119,0.348045,153.505789,-84.994007,-143.516540
08991,1147748,8.354957,1.174176,-2.205345,-0.373607,0.023763,-0.024281,-0.543340,-0.135503,0.346266,153.067167,-84.999923,-143.290323
08992,1147848,8.527472,1.053656,-2.229698,-0.390803,0.041850,-0.015840,-0.544764,-0.137778,0.342140,152.612814,-85.017085,-143.058306
08993,1147948,8.690397,0.985721,-2.266952,-0.404257,0.058896,-0.007923,-0.546278,-0.138301,0.343114,152.142353,-85.044814,-142.817957
08994,1148048,8.923753,0.901944,-2.223394,-0.417078,0.079490,-0.002796,-0.545704,-0.142576,0.338387,151.625867,-85.084128,-142.538876
08995,1148148,9.182905,0.871660,-2.181369,-0.421371,0.106065,-0.005139,-0.545664,-0.145943,0.335710,151.000675,-85.135890,-142.153254
08996,1148248,9.441458,0.975909,-2.178287,-0.420333,0.126167,-0.012674,-0.547636,-0.150323,0.333982,150.253165,-85.195149,-141.644394
08997,1148348,9.609247,1.083581,-2.112899,-0.414857,0.130729,-0.030073,-0.548091,-0.152188,0.331381,149.373880,-85.251017,-141.000283
08998,1148448,9.795347,1.152774,-2.010021,-0.407074,0.119557,-0.052588,-0.549502,-0.157404,0.326103,148.387938,-85.293834,-140.244815
08999,1148548,9.968650,1.135317,-1.765959,-0.383007,0.103320,-0.077560,-0.549423,-0.159678,0.321478,147.313755,-85.320016,-139.387095
09000,1148648,10.056783,1.054676,-1.495382,-0.357389,0.092684,-0.096928,-0.547399,-0.162603,0.319327,146.171953,-85.333639,-138.446899
09001,1148748,10.132382,0.890490,-1.346222,-0.351729,0.093444,-0.109305,-0.553848,-0.163424,0.317774,144.953237,-85.342018,-137.426348
09002,1148848,10.119284,0.734601,-1.063671,-0.331511,0.092082,-0.109879,-0.550785,-0.168736,0.312998,143.744958,-85.347806,-136.404688
09003,1148948,9.996336,0.678732,-0.867498,-0.326030,0.094740,-0.097790,-0.553279,-0.170689,0.312895,142.593897,-85.357253,-135.437320
09004,1149048,9.812042,0.659084,-0.686673,-0.323881,0.096995,-0.084965,-0.555207,-0.170489,0.309396,141.501266,-85.370701,-134.527376
09005,1149148,9.619277,0.718449,-0.501027,-0.336013,0.109294,-0.070800,-0.553193,-0.174434,0.307694,140.418223,-85.393334,-133.634070
09006,1149248,9.406852,0.793103,-0.381401,-0.334780,0.121705,-0.061223,-0.552656,-0.173349,0.305746,139.320684,-85.423568,-132.725575
09007,1149348,9.186816,0.839550,-0.371699,-0.323581,0.125085,-0.056169,-0.552617,-0.177713,0.303018,138.227536,-85.455771,-131.815121
09008,1149448,9.053606,0.800793,-0.485452,-0.319962,0.110756,-0.044019,-0.556009,-0.176420,0.298070,137.257813,-85.485268,-131.026470
09009,1149548,8.907810,0.725412,-0.507061,-0.313878,0.074638,-0.030193,-0.553542,-0.178999,0.298943,136.534783,-85.504143,-130.481833
09010,1149648,8.849030,0.588433,-0.453068,-0.307790,0.046090,-0.013491,-0.555489,-0.179843,0.296393,136.042864,-85.517352,-130.165543
09011,1149748,8.814953,0.488148,-0.351075,-0.298047,0.034535,0.003579,-0.556931,-0.181170,0.293317,135.702936,-85.532440,-129.996118
09012,1149848,8.758074,0.405100,-0.329756,-0.278530,0.022929,0.022295,-0.555917,-0.181636,0.292293,135.530674,-85.550219,-129.983649
09013,1149948,8.719518,0.395277,-0.289551,-0.260620,0.014740,0.041286,-0.558387,-0.185510,0.290589,135.510626,-85.572275,-130.113554
09014,1150048,8.709243,0.470970,-0.217134,-0.245222,0.003243,0.060235,-0.558337,-0.183895,0.288166,135.660571,-85.597215,-130.405104
09015,1150148,8.714760,0.597669,-0.134210,-0.228328,-0.001709,0.072297,-0.559815,-0.185317,0.287090,135.913383,-85.624863,-130.790116
09016,1150248,8.733620,0.740869,-0.126063,-0.204761,-0.001989,0.081008,-0.558307,-0.187784,0.285964,136.232651,-85.655710,-131.228246
09017,1150348,8.780039,0.814949,-0.115217,-0.176849,-0.012012,0.083551,-0.562811,-0.189256,0.286886,136.639585,-85.683188,-131.738268
09018,1150448,8.810833,0.853098,-0.157420,-0.151698,-0.023892,0.088619,-0.561761,-0.190124,0.283837,137.156805,-85.707365,-132.344457
09019,1150548,8.803352,0.914420,-0.155708,-0.131129,-0.038913,0.091646,-0.565251,-0.192061,0.283734,137.786694,-85.725913,-133.051837
09020,1150648,8.817950,0.943118,-0.079153,-0.113674,-0.049876,0.091739,-0.562740,-0.191056,0.282786,138.488678,-85.739200,-133.821515
09021,1150748,8.879966,0.983869,-0.012806,-0.088198,-0.044642,0.088880,-0.564236,-0.191530,0.282760,139.166564,-85.752973,-134.552428
09022,1150848,8.949188,1.009951,0.056745,-0.053210,-0.032910,0.089488,-0.565705,-0.192929,0.281184,139.813889,-85.771454,-135.232629
09023,1150948,9.066815,1.041333,0.113570,-0.022403,-0.017984,0.087334,-0.567692,-0.189908,0.281336,140.397530,-85.795162,-135.831311
09024,1151048,9.122508,0.997199,0.144186,-0.000576,-0.006014,0.087131,-0.566183,-0.192375,0.280209,140.939853,-85.823668,-136.376053
09025,1151148,9.177574,0.989818,0.181885,0.017043,-0.001771,0.087762,-0.567652,-0.193774,0.278633,141.482585,-85.853917,-136.911115
09026,1151248,9.272818,0.954110,0.216422,0.043493,0.008423,0.087524,-0.569190,-0.191878,0.281234,141.996763,-85.888309,-137.402377
09027,1151348,9.388211,0.936889,0.255743,0.069059,0.009271,0.090523,-0.570162,-0.188824,0.280386,142.548892,-85.923807,-137.917024
09028,1151448,9.554558,0.937839,0.267234,0.101121,0.023981,0.096488,-0.569677,-0.190849,0.280784,143.095607,-85.967735,-138.407846
09029,1151548,9.609933,1.027759,0.327776,0.118958,0.039760,0.099516,-0.570653,-0.189789,0.279835,143.606802,-86.019630,-138.852840
09030,1151648,9.680853,0.958613,0.427880,0.104920,0.047162,0.107254,-0.572147,-0.189765,0.279835,144.138379,-86.077284,-139.326344
09031,1151748,9.714143,0.908376,0.591758,0.101414,0.076592,0.115850,-0.573110,-0.186687,0.278487,144.597376,-86.151233,-139.729117
09032,1151848,9.713311,0.900699,0.646425,0.088342,0.116853,0.126701,-0.574161,-0.186318,0.281512,144.941601,-86.247425,-140.024370
09033,1151948,9.621397,0.888964,0.593800,0.077791,0.135972,0.142623,-0.575113,-0.187178,0.278961,145.316025,-86.357701,-140.355951
09034,1152048,9.579262,0.879461,0.586948,0.086436,0.144060,0.152099,-0.576588,-0.181650,0.278740,145.747667,-86.474724,-140.739899
09035,1152148,9.547487,0.885660,0.585535,0.100954,0.162802,0.164336,-0.577045,-0.184511,0.276089,146.212951,-86.604383,-141.149210
09036,1152248,9.460826,0.866480,0.488720,0.113371,0.163245,0.178397,-0.578563,-0.182567,0.277689,146.835614,-86.738462,-141.709029
09037,1152348,9.432253,0.799176,0.501014,0.117847,0.152021,0.186252,-0.579529,-0.180984,0.276266,147.643825,-86.869158,-142.452082
09038,1152448,9.346542,0.724352,0.552717,0.122689,0.137841,0.192516,-0.583011,-0.177939,0.276417,148.661144,-86.994176,-143.401709
09039,1152548,9.230809,0.647606,0.555001,0.120711,0.117379,0.195483,-0.584477,-0.177843,0.274917,149.908142,-87.108963,-144.582379
09040,1152648,9.181947,0.605502,0.616436,0.109364,0.100730,0.200716,-0.585940,-0.175754,0.273519,151.396419,-87.215431,-146.011046
09041,1152748,9.144499,0.632469,0.689515,0.103826,0.097247,0.204169,-0.588466,-0.174815,0.275568,153.053016,-87.319085,-147.611303
09042,1152848,9.250693,0.673984,0.747769,0.089685,0.100902,0.213448,-0.586936,-0.175240,0.273544,154.917594,-87.424571,-149.427769
09043,1152948,9.436553,0.748723,0.849018,0.053801,0.114788,0.232224,-0.589913,-0.174172,0.273094,157.073358,-87.538733,-151.556169
09044,1153048,9.645806,0.768583,0.976614,0.009756,0.132854,0.253245,-0.591378,-0.173080,0.271645,159.594669,-87.663072,-154.075548
09045,1153148,9.862793,0.747053,1.138896,-0.022714,0.157691,0.271322,-0.592385,-0.168628,0.272873,162.518373,-87.799115,-157.016064
09046,1153248,10.134626,0.772060,1.301887,-0.032746,0.193722,0.281390,-0.595811,-0.170895,0.269246,165.827023,-87.950103,-160.347305
09047,1153348,10.449305,0.716713,1.346132,-0.026355,0.228887,0.284284,-0.595777,-0.167336,0.267925,169.591361,-88.113267,-164.130554
09048,1153448,10.842353,0.595665,1.323022,0.005337,0.268367,0.288471,-0.596293,-0.167376,0.268924,174.066462,-88.289475,-168.606413
09049,1153548,11.300804,0.360246,1.332673,0.063281,0.293131,0.290373,-0.599732,-0.166203,0.266475,179.597862,-88.467083,-174.105381
09050,1153648,11.869074,0.096473,1.214979,0.104300,0.332312,0.290594,-0.601673,-0.163561,0.264102,-173.372034,-88.649170,178.920456
09051,1153748,12.402916,-0.166489,1.135305,0.140362,0.352335,0.290432,-0.601170,-0.160579,0.264255,-164.179098,-88.816172,169.804134
09052,1153848,12.819648,-0.154068,1.019908,0.155215,0.363711,0.289170,-0.601610,-0.159430,0.261307,-152.260678,-88.949980,157.970846
09053,1153948,13.149597,0.102475,0.843595,0.157686,0.373832,0.287445,-0.604058,-0.156305,0.259459,-137.522107,-89.032409,143.318795
09054,1154048,13.441047,0.547243,0.467988,0.132935,0.388275,0.292244,-0.608018,-0.152706,0.258636,-120.827856,-89.044662,126.696756
09055,1154148,13.672162,0.973992,-0.046585,0.084439,0.387094,0.292703,-0.611468,-0.147098,0.257415,-105.104462,-88.977608,111.017677
09056,1154248,13.460462,1.282724,-0.745650,0.032095,0.325393,0.289119,-0.612921,-0.144985,0.255517,-93.927111,-88.845840,99.854803
09057,1154348,12.855549,1.328388,-1.333481,-0.030660,0.202697,0.278415,-0.615385,-0.140413,0.254745,-88.369243,-88.689853,94.275994
09058,1154448,12.155417,1.016796,-1.504542,-0.080942,0.075137,0.254950,-0.612865,-0.139384,0.253297,-86.860572,-88.543440,92.718258
09059,1154548,11.545340,0.613484,-1.476920,-0.106706,-0.034348,0.232077,-0.614803,-0.134748,0.251026,-87.869349,-88.412862,93.663886
09060,1154648,10.867956,0.165259,-1.459372,-0.116374,-0.138406,0.209616,-0.614817,-0.132305,0.252153,-90.728574,-88.295083,96.455176
09061,1154748,10.258060,-0.329755,-1.467611,-0.104703,-0.233430,0.203919,-0.613825,-0.129355,0.252805,-94.922112,-88.173122,100.588258
09062,1154848,9.673115,-0.769700,-1.455928,-0.079985,-0.322062,0.206279,-0.612354,-0.126960,0.254432,-100.021800,-88.033228,105.642485
09063,1154948,9.079537,-1.104703,-1.281699,-0.015594,-0.386446,0.198336,-0.614374,-0.126503,0.255957,-105.376492,-87.874951,110.989307
09064,1155048,8.539319,-1.510567,-1.143135,0.078041,-0.410136,0.179466,-0.611409,-0.124629,0.257559,-110.315045,-87.706310,115.974042
09065,1155148,8.028586,-1.925234,-1.108087,0.185041,-0.397557,0.154840,-0.610933,-0.121222,0.259236,-114.471993,-87.538768,120.238594
09066,1155248,7.591040,-2.169260,-1.033629,0.289296,-0.346887,0.127198,-0.611012,-0.118948,0.263861,-117.619954,-87.387293,123.553647
09067,1155348,7.276974,-2.144464,-1.043390,0.387247,-0.246177,0.103912,-0.610512,-0.117959,0.263912,-119.450405,-87.268886,125.606469
09068,1155448,7.132115,-1.827659,-1.235561,0.468245,-0.123222,0.066021,-0.610043,-0.118537,0.265386,-120.069490,-87.202264,126.493272
09069,1155548,7.221877,-1.575863,-1.568786,0.518097,-0.022608,0.032865,-0.608047,-0.116576,0.265489,-119.817019,-87.180716,126.536207
09070,1155648,7.594378,-1.244020,-1.746491,0.543717,0.027549,0.003132,-0.612484,-0.116385,0.262988,-119.215558,-87.188147,126.244496
09071,1155748,8.214213,-1.024662,-1.803662,0.546709,0.045564,-0.022477,-0.611542,-0.116047,0.266013,-118.569645,-87.213237,125.910043
09072,1155848,8.928704,-0.935093,-1.773212,0.524671,0.037483,-0.032051,-0.610474,-0.111908,0.262718,-118.066327,-87.240778,125.705747
09073,1155948,9.609706,-0.876485,-1.616577,0.469375,0.018852,-0.021277,-0.613505,-0.114946,0.264564,-117.725480,-87.257782,125.632418
09074,1156048,10.244355,-0.778357,-1.518541,0.397616,-0.015220,0.000003,-0.615000,-0.115421,0.264538,-117.667143,-87.254892,125.800774
09075,1156148,10.852385,-0.737050,-1.481995,0.335152,-0.042412,0.021537,-0.612009,-0.113974,0.264615,-117.811374,-87.233813,126.136109
09076,1156248,11.285993,-0.848789,-1.379955,0.289677,-0.047378,0.039096,-0.614951,-0.113806,0.262115,-117.932766,-87.202461,126.422516
09077,1156348,11.283489,-0.940762,-1.387748,0.258198,-0.033765,0.050106,-0.614462,-0.113339,0.262640,-117.868600,-87.169163,126.505115
09078,1156448,10.836004,-0.923993,-1.281260,0.219340,-0.038962,0.057391,-0.617479,-0.113863,0.264113,-117.840185,-87.130773,126.601247
09079,1156548,10.368744,-0.842967,-1.068971,0.193095,-0.071017,0.062268,-0.617947,-0.107330,0.263444,-118.118812,-87.081276,126.989785
09080,1156648,9.908658,-0.685689,-0.689609,0.192263,-0.090516,0.048568,-0.615504,-0.112946,0.265164,-118.648620,-87.033228,127.629388
09081,1156748,9.542126,-0.586165,-0.499882,0.204752,-0.108018,0.030219,-0.616934,-0.108294,0.262394,-119.416718,-86.989130,128.514810
09082,1156848,9.011381,-0.539693,-0.455871,0.225041,-0.163801,0.009153,-0.615953,-0.106364,0.263495,-120.779386,-86.938587,130.007324
09083,1156948,8.712462,-0.538295,-0.338352,0.267142,-0.227073,-0.004183,-0.617489,-0.108928,0.265367,-122.707379,-86.873209,132.090238
09084,1157048,8.452186,-0.532371,-0.359520,0.299494,-0.266862,-0.014451,-0.615484,-0.107441,0.264944,-124.927624,-86.795992,134.484569
09085,1157148,8.288291,-0.550268,-0.423338,0.313866,-0.300614,-0.020110,-0.614542,-0.106107,0.268019,-127.329711,-86.704710,137.069492
09086,1157248,8.369558,-0.537939,-0.315501,0.310733,-0.306450,-0.021786,-0.615543,-0.104122,0.268620,-129.648806,-86.606135,139.569744
09087,1157348,8.556640,-0.519125,-0.156790,0.306972,-0.281656,-0.018770,-0.614077,-0.104218,0.270120,-131.638056,-86.510089,141.737664
09088,1157448,8.757875,-0.497327,-0.133416,0.291314,-0.267895,-0.014189,-0.613109,-0.104306,0.271620,-133.402486,-86.413226,143.671583
09089,1157548,8.988167,-0.471920,-0.074648,0.247301,-0.261654,-0.017633,-0.614616,-0.101341,0.272772,-135.075447,-86.316734,145.488796
09090,1157648,9.218347,-0.480820,-0.073735,0.210711,-0.255495,-0.020118,-0.608146,-0.099475,0.273375,-136.657675,-86.220531,147.194284
09091,1157748,9.292709,-0.462681,-0.097635,0.181821,-0.250163,-0.025241,-0.608677,-0.102031,0.274747,-138.175738,-86.125593,148.819070
09092,1157848,9.320419,-0.512964,-0.088409,0.168604,-0.239084,-0.030489,-0.607236,-0.100704,0.277823,-139.598884,-86.034661,150.341322
09093,1157948,9.219315,-0.638926,-0.094434,0.163574,-0.227215,-0.031945,-0.605233,-0.100214,0.277349,-140.906734,-85.947033,151.745300
09094,1158048,8.998437,-0.792493,-0.193493,0.145529,-0.238008,-0.026301,-0.605733,-0.101202,0.277298,-142.183710,-85.850352,153.108160
09095,1158148,8.847125,-0.909907,-0.214697,0.113335,-0.263911,-0.012087,-0.602245,-0.100759,0.277325,-143.448920,-85.734775,154.440966
09096,1158248,8.856421,-0.983942,-0.092371,0.078814,-0.278263,0.003027,-0.603312,-0.103901,0.280670,-144.634345,-85.605386,155.674197
09097,1158348,8.896966,-0.910447,0.034779,0.058032,-0.266828,0.012289,-0.600327,-0.100983,0.281324,-145.659753,-85.476563,156.735254
09098,1158448,8.982890,-0.947211,0.108946,0.045384,-0.235418,0.017664,-0.598344,-0.101039,0.281824,-146.480562,-85.359639,157.584028
09099,1158548,9.101837,-0.951535,0.145947,0.021642,-0.179614,0.020022,-0.595872,-0.101127,0.282825,-147.051026,-85.267901,158.168156
09100,1158648,9.224949,-0.982538,0.183823,0.006674,-0.117231,0.015585,-0.598384,-0.102630,0.283747,-147.405129,-85.207207,158.526696
09101,1158748,9.500976,-1.010019,0.252044,-0.009532,-0.056214,0.016182,-0.597348,-0.106511,0.281045,-147.535013,-85.175677,158.650996
09102,1158848,9.718700,-0.902557,0.189854,-0.028083,0.007425,0.007303,-0.595892,-0.107129,0.283019,-147.493546,-85.177624,158.592723
09103,1158948,9.836246,-0.984201,0.079485,-0.037728,0.042248,-0.006048,-0.596855,-0.104052,0.281672,-147.406402,-85.200495,158.483125
09104,1159048,9.802592,-0.968017,-0.148896,-0.041283,0.046336,-0.015025,-0.592880,-0.104139,0.282173,-147.356993,-85.228092,158.409403
09105,1159148,9.775673,-0.954685,-0.247851,-0.042396,0.043839,-0.033231,-0.593356,-0.107547,0.280496,-147.422637,-85.260098,158.450539
09106,1159248,9.807303,-1.000315,-0.327144,-0.024689,0.056054,-0.052298,-0.594838,-0.106004,0.280071,-147.545084,-85.303863,158.558896
09107,1159348,9.714458,-1.085983,-0.600305,0.004675,0.064222,-0.071387,-0.595319,-0.106447,0.279047,-147.735709,-85.357397,158.752582
09108,1159448,9.540523,-1.161752,-0.870852,0.036138,0.037605,-0.093808,-0.593844,-0.107017,0.280021,-148.148834,-85.404726,159.187615
09109,1159548,9.485999,-1.356787,-0.926436,0.080186,0.002184,-0.112127,-0.592301,-0.105924,0.277574,-148.790315,-85.439903,159.877095
09110,1159648,9.595258,-1.557880,-0.874641,0.137546,-0.018957,-0.123013,-0.594853,-0.109018,0.280419,-149.554386,-85.467179,160.722577
09111,1159748,9.923812,-1.872849,-0.676297,0.203436,0.000839,-0.130798,-0.592823,-0.108953,0.278420,-150.267971,-85.505623,161.555361
09112,1159848,10.399309,-2.020095,-0.349257,0.260529,0.060067,-0.127075,-0.592849,-0.107531,0.279996,-150.725420,-85.571866,162.164113
09113,1159948,10.837509,-1.779949,0.036101,0.266890,0.143920,-0.117431,-0.596344,-0.107001,0.280520,-150.825592,-85.677101,162.418241
09114,1160048,11.379323,-1.279073,0.538800,0.208669,0.248700,-0.105766,-0.594335,-0.108479,0.279445,-150.489046,-85.831432,162.201031
09115,1160148,12.008498,-0.698739,0.915938,0.123286,0.365903,-0.098761,-0.598752,-0.107243,0.275996,-149.648595,-86.041795,161.429683
09116,1160248,12.498177,0.006542,0.925704,0.037913,0.457155,-0.098212,-0.598709,-0.109614,0.273370,-148.345417,-86.295770,160.145731
09117,1160348,12.591297,0.739227,0.550733,-0.039286,0.500731,-0.101208,-0.602707,-0.111568,0.273767,-146.695166,-86.569457,158.469997
09118,1160448,12.316471,1.188282,0.018082,-0.079109,0.501744,-0.123158,-0.605658,-0.110926,0.271792,-144.963053,-86.847501,156.689749
09119,1160548,12.345299,1.081113,-0.495859,-0.088173,0.500891,-0.150390,-0.606571,-0.111192,0.267268,-143.153545,-87.131020,154.827138
09120,1160648,12.407484,0.889874,-1.056598,-0.115387,0.509543,-0.176304,-0.609531,-0.110574,0.265793,-141.147924,-87.424157,152.752922
09121,1160748,11.713993,0.571650,-1.856175,-0.185913,0.448453,-0.199267,-0.612461,-0.113845,0.262116,-139.486504,-87.695425,150.983120
09122,1160848,10.414983,0.366706,-2.512813,-0.279374,0.290360,-0.201453,-0.613451,-0.110840,0.262268,-139.124682,-87.897407,150.460482
09123,1160948,9.471838,0.262167,-2.808187,-0.360527,0.085078,-0.192844,-0.610917,-0.112254,0.259693,-140.846579,-88.006343,151.976331
09124,1161048,9.123262,-0.005543,-2.793602,-0.408804,-0.092186,-0.181742,-0.612887,-0.115139,0.258041,-144.425295,-88.028048,155.322309
09125,1161148,8.892183,-0.268317,-2.521231,-0.425994,-0.215085,-0.148566,-0.611432,-0.116754,0.259964,-148.678354,-87.972496,159.333187
09126,1161248,8.600377,-0.365631,-2.190901,-0.411848,-0.292224,-0.117850,-0.611411,-0.115211,0.259041,-152.811239,-87.859645,163.232114
09127,1161348,8.305781,-0.287462,-1.659203,-0.397484,-0.326116,-0.090654,-0.612483,-0.121343,0.262234,-156.355452,-87.713316,166.550482
09128,1161448,8.172906,-0.148896,-1.049725,-0.386754,-0.315190,-0.072885,-0.608465,-0.118345,0.260889,-159.196218,-87.562031,169.171288
09129,1161548,8.314979,0.083495,-0.746344,-0.386308,-0.258762,-0.052989,-0.608984,-0.119381,0.261837,-161.244192,-87.432857,170.999049
09130,1161648,8.632119,0.400959,-0.585816,-0.409873,-0.195510,-0.034536,-0.608494,-0.124371,0.261584,-162.673635,-87.332512,172.194232
09131,1161748,8.996709,0.652372,-0.461605,-0.450503,-0.125014,-0.019279,-0.605488,-0.124869,0.260559,-163.619794,-87.267179,172.882302
09132,1161848,9.222028,0.735510,-0.594840,-0.494564,-0.031061,-0.001575,-0.607923,-0.130141,0.256781,-164.048157,-87.250338,173.026660
09133,1161948,9.301382,0.664400,-0.914101,-0.519366,0.044909,0.009679,-0.606452,-0.133202,0.257628,-164.110274,-87.273550,172.790058
09134,1162048,9.424567,0.501167,-1.218755,-0.503379,0.090437,0.010023,-0.606392,-0.136023,0.253977,-164.004262,-87.321775,172.394259
09135,1162148,9.704367,0.241589,-1.426834,-0.462391,0.107130,0.000365,-0.607816,-0.137800,0.249876,-163.923036,-87.380677,172.046761
09136,1162248,10.069825,-0.181103,-1.514013,-0.406048,0.091805,-0.022064,-0.608773,-0.141649,0.247174,-164.129673,-87.434677,172.019747
09137,1162348,10.549669,-0.571861,-1.441907,-0.329418,0.046559,-0.044392,-0.606755,-0.143103,0.245599,-164.733585,-87.467130,172.434377
09138,1162448,10.891845,-0.891000,-1.471987,-0.242781,-0.015127,-0.069328,-0.607293,-0.144687,0.247522,-165.816909,-87.468742,173.378619
09139,1162548,10.928856,-0.986569,-1.553519,-0.161319,-0.079868,-0.069309,-0.608734,-0.146013,0.244447,-167.042993,-87.433435,174.512552
09140,1162648,10.593871,-0.873288,-1.548697,-0.103562,-0.159902,-0.048453,-0.608281,-0.150103,0.246242,-168.153944,-87.349738,175.564460
09141,1162748,10.213689,-0.600156,-1.447687,-0.068995,-0.229286,-0.024989,-0.606272,-0.146623,0.245921,-169.060694,-87.223572,176.431883
09142,1162848,9.851628,-0.385803,-1.158859,-0.046256,-0.284972,-0.011292,-0.608779,-0.150593,0.246217,-169.836247,-87.064005,177.181109
09143,1162948,9.655212,-0.237476,-0.672047,-0.035220,-0.301203,0.004738,-0.607796,-0.147668,0.247369,-170.388258,-86.893274,177.712932
09144,1163048,9.522183,-0.202499,-0.317421,-0.049216,-0.272422,0.037242,-0.607281,-0.148624,0.246319,-170.523332,-86.735553,177.819232
09145,1163148,9.185187,-0.121204,-0.166214,-0.064353,-0.253680,0.076993,-0.607870,-0.147362,0.251393,-170.249910,-86.584624,177.507672
09146,1163248,9.062767,-0.022130,0.014650,-0.106343,-0.215772,0.111523,-0.605371,-0.147876,0.250869,-169.649728,-86.451495,176.844595
09147,1163348,8.922598,0.078600,0.110566,-0.144824,-0.152724,0.127201,-0.606341,-0.148784,0.249318,-168.871218,-86.351712,175.980651
09148,1163448,8.811722,0.118463,-0.024380,-0.164580,-0.091464,0.129909,-0.609348,-0.148785,0.250317,-168.012884,-86.285244,175.025281
09149,1163548,8.718456,0.208672,-0.204146,-0.162393,-0.054674,0.120635,-0.610357,-0.150288,0.250740,-167.192853,-86.239616,174.109466
09150,1163648,8.924434,0.326820,-0.279232,-0.146364,-0.020671,0.099380,-0.610815,-0.148689,0.248817,-166.494079,-86.214945,173.324306
09151,1163748,9.179981,0.396648,-0.472913,-0.134902,0.015102,0.066509,-0.611316,-0.150674,0.248715,-165.998235,-86.214124,172.749049
09152,1163848,9.263073,0.449965,-0.659707,-0.122913,0.011978,0.037506,-0.612764,-0.150530,0.246216,-165.745844,-86.215373,172.424619
09153,1163948,9.257656,0.533464,-0.732678,-0.111839,-0.030145,0.014325,-0.612756,-0.151004,0.245690,-165.771587,-86.196452,172.385238
09154,1164048,9.249673,0.535668,-0.693269,-0.108635,-0.087641,-0.007896,-0.613264,-0.151519,0.246165,-166.099326,-86.148677,172.650317
09155,1164148,9.281444,0.462259,-0.602923,-0.093349,-0.139082,-0.021361,-0.609776,-0.151076,0.246191,-166.621535,-86.073947,173.119070
09156,1164248,9.366551,0.328422,-0.440301,-0.080385,-0.172751,-0.030642,-0.613278,-0.154034,0.246538,-167.253007,-85.981311,173.704812
09157,1164348,9.485807,0.159426,-0.243785,-0.065961,-0.163511,-0.036705,-0.609276,-0.149589,0.246268,-167.880620,-85.894155,174.295016
09158,1164448,9.496451,0.035699,-0.229543,-0.052923,-0.130853,-0.038455,-0.607795,-0.152128,0.246641,-168.437657,-85.825092,174.822000
09159,1164548,9.383272,-0.071948,-0.246350,-0.035439,-0.099662,-0.034425,-0.609278,-0.151084,0.246191,-168.890099,-85.772767,175.254192
09160,1164648,9.295349,-0.087684,-0.233056,-0.016005,-0.077477,-0.023970,-0.608256,-0.152024,0.244641,-169.210192,-85.731572,175.564864
09161,1164748,9.324798,-0.079732,-0.176672,0.002414,-0.062883,-0.011833,-0.605791,-0.150641,0.246218,-169.402629,-85.697204,175.758121
09162,1164848,9.496292,-0.075868,-0.078572,0.011466,-0.038274,0.000731,-0.607776,-0.152080,0.245641,-169.459514,-85.675348,175.820650
09163,1164948,9.669683,-0.035480,-0.032533,0.009204,-0.005105,0.010023,-0.605749,-0.148053,0.244346,-169.402261,-85.671200,175.767415
09164,1165048,9.721779,0.140852,-0.149363,-0.011040,0.013700,0.018671,-0.606287,-0.149637,0.246269,-169.265975,-85.676720,175.623276
09165,1165148,9.633027,0.438794,-0.171414,-0.052468,0.012896,0.024156,-0.602778,-0.147651,0.245372,-169.113423,-85.681174,175.438985
09166,1165248,9.494930,0.684517,-0.167043,-0.091718,0.006667,0.020717,-0.602268,-0.146140,0.244948,-169.017774,-85.682470,175.289158
09167,1165348,9.437428,0.780867,-0.211869,-0.106416,0.005381,0.010381,-0.604227,-0.148503,0.242821,-169.009448,-85.684165,175.218398
09168,1165448,9.415406,0.783086,-0.312964,-0.098615,-0.003466,-0.000145,-0.600752,-0.149579,0.243271,-169.087958,-85.682033,175.239147
09169,1165548,9.405996,0.680287,-0.344821,-0.090871,-0.017390,-0.008114,-0.604727,-0.148993,0.242796,-169.241195,-85.672924,175.339236
09170,1165648,9.396716,0.505908,-0.258248,-0.080522,-0.021058,-0.014317,-0.602220,-0.150479,0.241721,-169.439192,-85.662385,175.490123
09171,1165748,9.398656,0.335323,-0.082633,-0.068369,-0.010486,-0.012328,-0.600722,-0.148510,0.241823,-169.600271,-85.657563,175.610947
09172,1165848,9.423767,0.200765,0.023408,-0.058373,0.011188,-0.012382,-0.599183,-0.149410,0.239274,-169.726545,-85.664943,175.702596
09173,1165948,9.516357,0.162131,0.087858,-0.056768,0.049918,-0.005155,-0.600653,-0.145850,0.238451,-169.746156,-85.693417,175.688187
09174,1166048,9.669570,0.182482,0.030174,-0.057654,0.095353,0.005826,-0.599645,-0.149804,0.237248,-169.620804,-85.746379,175.527888
09175,1166148,9.799466,0.203182,-0.053471,-0.065758,0.130516,0.019462,-0.596615,-0.147762,0.235352,-169.341193,-85.817683,175.208252
09176,1166248,9.833699,0.194703,-0.107158,-0.067506,0.140718,0.034491,-0.596076,-0.145681,0.233455,-168.919024,-85.892962,174.744697
09177,1166348,9.995081,0.143400,0.096345,-0.064512,0.156260,0.043839,-0.595125,-0.144820,0.236005,-168.378724,-85.975638,174.164467
09178,1166448,10.112678,0.063289,0.321289,-0.067312,0.191034,0.060241,-0.595033,-0.145078,0.230981,-167.621342,-86.075384,173.365085
09179,1166548,10.218343,-0.049815,0.673675,-0.062354,0.235340,0.079181,-0.595479,-0.141960,0.228635,-166.574551,-86.196579,172.278590
09180,1166648,10.409316,-0.131452,0.966277,-0.046875,0.316098,0.105050,-0.594980,-0.141470,0.228660,-165.040840,-86.357339,170.713221
09181,1166748,10.772541,-0.239326,0.925239,0.000405,0.426125,0.118227,-0.594940,-0.139879,0.226737,-162.915044,-86.573312,168.582123
09182,1166848,11.217686,-0.340099,0.677270,0.076858,0.537375,0.115132,-0.595332,-0.137613,0.221341,-160.105614,-86.844490,165.810702
09183,1166948,11.421441,-0.221121,0.276253,0.136336,0.581508,0.100393,-0.597785,-0.137477,0.219341,-156.701572,-87.133316,162.478731
09184,1167048,11.502174,0.085310,0.039508,0.147876,0.523517,0.083306,-0.600697,-0.130286,0.216197,-153.079359,-87.384945,158.935730
09185,1167148,11.734264,0.470876,-0.019339,0.087302,0.430658,0.062523,-0.596665,-0.130229,0.213699,-149.647591,-87.584659,155.549213
09186,1167248,12.268678,0.698629,-0.049743,0.001908,0.385905,0.049884,-0.599590,-0.130511,0.210174,-146.191703,-87.757204,152.089995
09187,1167348,12.643954,0.838185,-0.404860,-0.083352,0.381961,0.040576,-0.599556,-0.127450,0.208827,-142.382380,-87.921794,148.228536
09188,1167448,12.791155,0.891845,-0.766946,-0.163069,0.389934,0.036397,-0.601992,-0.122806,0.206556,-137.947069,-88.080571,143.695329
09189,1167548,12.701598,0.850687,-0.996961,-0.233418,0.371880,0.038281,-0.603476,-0.121761,0.206107,-133.005234,-88.217778,138.615328
09190,1167648,12.306092,0.804233,-1.202818,-0.284813,0.305405,0.034159,-0.600908,-0.120114,0.202185,-128.392943,-88.317758,133.835820
09191,1167748,11.770488,0.647025,-1.435850,-0.326242,0.191265,0.024955,-0.605337,-0.115438,0.199913,-125.281699,-88.372732,130.534369
09192,1167848,11.191902,0.392182,-1.396409,-0.348248,0.063721,0.017640,-0.606831,-0.115414,0.199913,-124.252678,-88.385973,129.303376
09193,1167948,10.658115,0.197674,-1.196093,-0.367648,-0.050761,0.017689,-0.602828,-0.110471,0.199668,-125.137778,-88.361807,129.976128
09194,1168048,10.207013,0.017890,-0.850232,-0.366994,-0.120832,0.022543,-0.603372,-0.110085,0.202193,-127.047821,-88.311274,131.674630
09195,1168148,9.723152,-0.115685,-0.592921,-0.345572,-0.140760,0.024187,-0.601802,-0.109418,0.198220,-129.111814,-88.251272,133.539479
09196,1168248,9.200560,-0.265836,-0.382514,-0.304619,-0.127932,0.025086,-0.600846,-0.106067,0.200897,-130.833649,-88.193781,135.085549
09197,1168348,8.692444,-0.392952,-0.330892,-0.239788,-0.095512,0.020344,-0.603326,-0.105007,0.200448,-132.048667,-88.149409,136.161771
09198,1168448,8.106085,-0.410061,-0.350280,-0.146056,-0.092198,0.004915,-0.602251,-0.102837,0.196551,-133.297779,-88.112091,137.325883
09199,1168548,7.607018,-0.444812,-0.479310,-0.033823,-0.083728,-0.022145,-0.598331,-0.103068,0.200051,-134.657282,-88.088439,138.664832
09200,1168648,7.214971,-0.598459,-0.659952,0.081766,-0.066043,-0.055261,-0.599338,-0.103575,0.200525,-136.114285,-88.084237,140.167643
09201,1168748,6.963511,-0.823949,-0.852137,0.204772,-0.038974,-0.085522,-0.597818,-0.099565,0.199729,-137.563659,-88.101928,141.733381
09202,1168848,6.992312,-1.061782,-1.138477,0.305700,-0.011653,-0.100371,-0.595829,-0.101589,0.199628,-138.864647,-88.135695,143.208550
09203,1168948,7.288296,-1.335588,-1.422888,0.370967,0.017692,-0.107965,-0.593855,-0.101669,0.200628,-139.944959,-88.184031,144.500392
09204,1169048,7.751727,-1.635239,-1.648431,0.398513,0.037284,-0.102978,-0.590892,-0.105751,0.201425,-140.772367,-88.238474,145.555057
09205,1169148,8.443926,-1.805165,-1.639822,0.403477,0.052452,-0.081460,-0.592365,-0.103686,0.200527,-141.151540,-88.291533,146.164206
09206,1169248,9.304360,-1.715684,-1.454650,0.384122,0.077199,-0.044481,-0.590365,-0.105188,0.199951,-140.695333,-88.342241,145.926603
09207,1169348,10.286592,-1.513498,-1.301858,0.340338,0.115971,-0.011527,-0.591346,-0.107117,0.198850,-139.216151,-88.397672,144.640610
09208,1169448,11.184910,-1.304045,-1.191534,0.280530,0.133686,0.021805,-0.589824,-0.107068,0.197351,-136.900651,-88.446642,142.483804
09209,1169548,11.709746,-1.031627,-1.320214,0.222375,0.112694,0.055488,-0.590304,-0.107012,0.196351,-134.291420,-88.470905,139.999918
09210,1169648,11.787664,-0.676651,-1.385621,0.175946,0.073933,0.083964,-0.587787,-0.107976,0.194802,-131.846480,-88.465100,137.653807
09211,1169748,11.487917,-0.332731,-1.334243,0.145863,0.046896,0.093857,-0.589810,-0.104553,0.196978,-129.748262,-88.442393,135.637291
09212,1169848,11.027558,-0.062151,-1.185087,0.127172,0.033744,0.090447,-0.588329,-0.106594,0.197377,-127.981002,-88.414653,133.941107
09213,1169948,10.495246,0.086669,-0.901289,0.113364,0.011278,0.073098,-0.592254,-0.104393,0.194479,-126.859766,-88.385823,132.883240
09214,1170048,9.970558,0.113368,-0.569622,0.099814,-0.020938,0.051452,-0.590744,-0.100407,0.194182,-126.559145,-88.355540,132.638514
09215,1170148,9.574753,0.044171,-0.197972,0.084767,-0.067608,0.027064,-0.591749,-0.100415,0.194682,-127.294078,-88.320388,133.421135
09216,1170248,9.308523,-0.117638,0.087303,0.087093,-0.116220,0.008590,-0.592779,-0.098503,0.196782,-128.942034,-88.275903,135.118526
09217,1170348,9.103215,-0.240263,0.235295,0.109095,-0.152434,-0.001516,-0.589248,-0.094476,0.194988,-131.120967,-88.220843,137.359803
09218,1170448,8.873276,-0.334469,0.283903,0.143661,-0.178331,-0.012295,-0.590791,-0.095569,0.197435,-133.612513,-88.157597,139.933748
09219,1170548,8.655712,-0.442629,0.283028,0.181088,-0.195183,-0.014383,-0.589797,-0.092122,0.198113,-136.136970,-88.084885,142.562193
09220,1170648,8.446376,-0.444583,0.239635,0.202248,-0.195677,-0.014661,-0.587861,-0.092298,0.201113,-138.465364,-88.008491,145.006726
09221,1170748,8.281629,-0.495044,0.297294,0.220462,-0.175178,-0.015495,-0.586345,-0.090778,0.200190,-140.407092,-87.938287,147.074925
09222,1170848,8.251171,-0.503791,0.290226,0.232588,-0.141385,-0.009470,-0.586407,-0.088954,0.203790,-141.814122,-87.878885,148.615131
09223,1170948,8.288262,-0.363245,0.255186,0.231802,-0.099466,-0.006693,-0.585956,-0.089581,0.206264,-142.725888,-87.836385,149.659340
09224,1171048,8.414203,-0.295262,0.174652,0.209254,-0.078377,-0.005555,-0.586454,-0.089573,0.206264,-143.412206,-87.802614,150.465045
09225,1171148,8.667270,-0.241105,0.110166,0.179902,-0.045747,-0.011213,-0.582956,-0.088109,0.205841,-143.877217,-87.785517,151.032468
09226,1171248,8.984842,-0.264248,0.075389,0.138716,-0.017475,-0.014680,-0.582447,-0.087595,0.205367,-144.155922,-87.782555,151.389840
09227,1171348,9.293333,-0.363392,-0.042081,0.104620,-0.016807,-0.013554,-0.580456,-0.088125,0.205342,-144.433968,-87.779460,151.727014
09228,1171448,9.518085,-0.453151,-0.027411,0.094953,-0.037307,-0.014521,-0.577500,-0.085778,0.207469,-144.902103,-87.767018,152.248898
09229,1171548,9.786613,-0.548358,0.093254,0.100339,-0.059776,-0.011908,-0.581441,-0.087089,0.204893,-145.515808,-87.742959,152.919583
09230,1171648,10.017259,-0.673461,0.161583,0.126522,-0.081336,-0.010664,-0.579513,-0.086791,0.208417,-146.258059,-87.707963,153.733974
09231,1171748,10.060060,-0.735370,0.312186,0.140747,-0.095488,-0.007727,-0.578064,-0.086436,0.210942,-147.042202,-87.664842,154.598507
09232,1171848,9.915568,-0.720282,0.492560,0.141188,-0.106587,-0.003256,-0.575559,-0.083462,0.210596,-147.825109,-87.614511,155.462121
09233,1171948,9.714958,-0.696141,0.639903,0.121323,-0.118665,0.002656,-0.575107,-0.083591,0.213095,-148.601635,-87.556037,156.308028
09234,1172048,9.600701,-0.607091,0.833026,0.103231,-0.120693,0.002782,-0.576589,-0.081550,0.212696,-149.362321,-87.496062,157.127773
09235,1172148,9.483528,-0.494287,0.945686,0.093431,-0.099062,-0.000502,-0.570635,-0.079226,0.214324,-149.989420,-87.447317,157.808238
09236,1172248,9.415551,-0.400729,0.961381,0.091944,-0.071153,0.000317,-0.575105,-0.077138,0.213925,-150.410067,-87.411950,158.281232
09237,1172348,9.366585,-0.302712,0.886066,0.088389,-0.038848,-0.001089,-0.570677,-0.076855,0.216950,-150.637982,-87.392979,158.559278
09238,1172448,9.320193,-0.255846,0.757469,0.077356,-0.012843,-0.008195,-0.572168,-0.074839,0.217052,-150.787524,-87.388960,158.752551
09239,1172548,9.313465,-0.274419,0.682414,0.069430,0.001659,-0.021818,-0.568686,-0.072925,0.217654,-151.002366,-87.395974,159.006655
09240,1172648,9.244794,-0.326449,0.626399,0.064403,0.000339,-0.037532,-0.567727,-0.073037,0.219654,-151.403560,-87.406605,159.444430
09241,1172748,9.217100,-0.446273,0.555691,0.068302,-0.010628,-0.052639,-0.569729,-0.072531,0.220178,-152.040627,-87.415627,160.120572
09242,1172848,9.232617,-0.554424,0.485057,0.065435,-0.025121,-0.061909,-0.564745,-0.071116,0.220256,-152.872965,-87.419352,160.990563
09243,1172948,9.231045,-0.606886,0.425499,0.063547,-0.033782,-0.065057,-0.566277,-0.071687,0.222229,-153.793161,-87.418855,161.947447
09244,1173048,9.350525,-0.656417,0.431086,0.051139,-0.038893,-0.066415,-0.565796,-0.070746,0.223280,-154.763017,-87.415349,162.946962
09245,1173148,9.481925,-0.582044,0.442054,0.030656,-0.024216,-0.069514,-0.565804,-0.070272,0.223805,-155.700831,-87.419476,163.902684
09246,1173248,9.513140,-0.485298,0.420778,0.024737,-0.005056,-0.074150,-0.563868,-0.070448,0.226804,-156.602064,-87.434030,164.818408
09247,1173348,9.606874,-0.480556,0.300703,0.016528,0.012266,-0.084116,-0.562890,-0.070512,0.227805,-157.551459,-87.459287,165.777644
09248,1173448,9.597614,-0.533906,0.022404,0.008402,0.035027,-0.088969,-0.559883,-0.070512,0.226806,-158.474341,-87.496976,166.705683
09249,1173548,9.594112,-0.713835,-0.280541,0.027221,0.044201,-0.092164,-0.561359,-0.070938,0.225780,-159.411190,-87.539560,167.658502
09250,1173648,9.749849,-0.934349,-0.550233,0.072465,0.051500,-0.099755,-0.560919,-0.072087,0.228728,-160.418663,-87.586856,168.707975
09251,1173748,10.069656,-1.043294,-0.512796,0.119013,0.078099,-0.110546,-0.558459,-0.073693,0.230152,-161.464672,-87.649766,169.822726
09252,1173848,10.544187,-0.947274,-0.144554,0.124732,0.129372,-0.119999,-0.557464,-0.074207,0.230127,-162.474533,-87.741446,170.904571
09253,1173948,11.264997,-0.653614,0.577422,0.074864,0.196722,-0.133855,-0.556448,-0.073677,0.229154,-163.513671,-87.871564,171.987077
09254,1174048,12.185201,-0.288535,1.447169,0.014927,0.294642,-0.150725,-0.560963,-0.076169,0.230525,-164.565052,-88.057516,173.047378
09255,1174148,13.042278,0.342979,1.962489,-0.048775,0.415993,-0.175253,-0.558933,-0.076104,0.228526,-165.763902,-88.313522,174.218545
09256,1174248,13.444709,1.117635,2.121877,-0.108292,0.533870,-0.212685,-0.559416,-0.077543,0.227450,-167.683545,-88.639130,176.076395
09257,1174348,13.324796,1.664002,1.841799,-0.163394,0.613658,-0.256375,-0.560347,-0.077358,0.223951,-171.828969,-89.011312,-179.871474
09258,1174448,12.955944,1.751935,1.520522,-0.206854,0.676039,-0.294091,-0.562319,-0.081240,0.222248,177.039450,-89.407445,-168.858056
09259,1174548,12.994600,1.396552,1.052306,-0.213354,0.755596,-0.320778,-0.565267,-0.079602,0.220324,126.315821,-89.731678,-118.256310
09260,1174648,13.350180,0.705896,0.440963,-0.191554,0.835075,-0.339588,-0.566676,-0.078365,0.215876,52.154022,-89.478727,-44.203846
09261,1174748,13.288194,0.043292,-0.344977,-0.165317,0.847705,-0.344888,-0.569190,-0.080865,0.216748,37.087240,-88.989582,-29.231352
09262,1174848,12.616734,-0.502512,-1.457926,-0.130925,0.736895,-0.333077,-0.570069,-0.077571,0.210902,33.059510,-88.533815,-25.278464
09263,1174948,11.797987,-1.207925,-2.565704,-0.076595,0.506843,-0.302335,-0.572098,-0.077635,0.212901,32.631564,-88.195656,-24.894884
09264,1175048,10.956030,-1.611188,-3.255802,-0.017368,0.199139,-0.250653,-0.575534,-0.074969,0.210528,34.371193,-88.021009,-26.645944
09265,1175148,10.200764,-1.577442,-3.192226,0.030273,-0.080965,-0.201606,-0.572578,-0.072621,0.212655,37.882299,-87.990127,-30.142241
09266,1175248,9.716409,-1.298172,-2.535035,0.095150,-0.282899,-0.166028,-0.572624,-0.077201,0.214426,43.106001,-88.051390,-35.314835
09267,1175348,9.383307,-0.943704,-1.550350,0.157112,-0.394715,-0.156047,-0.576155,-0.070814,0.217753,50.019625,-88.141742,-42.142452
09268,1175448,9.046986,-0.533695,-0.430520,0.163797,-0.420345,-0.146027,-0.572267,-0.073111,0.222651,57.817980,-88.215631,-49.851046
09269,1175548,8.551829,-0.099329,0.410878,0.084942,-0.398891,-0.122289,-0.571306,-0.072226,0.224702,65.522641,-88.261901,-57.510831
09270,1175648,8.079608,0.498065,0.818704,-0.042970,-0.318308,-0.076020,-0.569350,-0.072354,0.226701,71.689814,-88.287194,-63.705632
09271,1175748,7.721908,1.190152,0.753199,-0.168913,-0.149730,-0.018919,-0.571377,-0.075883,0.228022,74.477696,-88.301008,-66.591843
09272,1175848,7.315660,1.590802,0.205405,-0.267771,0.042311,0.033917,-0.569340,-0.076790,0.225473,73.376786,-88.312169,-65.644310
09273,1175948,7.158342,1.717950,-0.564232,-0.319576,0.203158,0.068760,-0.571302,-0.080648,0.223270,69.047652,-88.311200,-61.496961
09274,1176048,7.306283,1.542345,-1.096884,-0.376461,0.330636,0.099542,-0.572716,-0.082401,0.218670,62.256256,-88.284307,-54.918946
09275,1176148,7.570779,1.207256,-1.496480,-0.400427,0.399852,0.113516,-0.569738,-0.088427,0.218366,54.541609,-88.218916,-47.430909
09276,1176248,8.036967,0.836793,-1.742078,-0.358791,0.388710,0.101824,-0.569691,-0.093265,0.215113,47.782700,-88.124061,-40.874952
09277,1176348,8.672241,0.442877,-1.954365,-0.257547,0.309527,0.058552,-0.572614,-0.092550,0.211639,43.204678,-88.023228,-36.442723
09278,1176448,9.350203,0.031927,-2.103442,-0.114014,0.195999,-0.002901,-0.572600,-0.094993,0.210512,41.066863,-87.938533,-34.369671
09279,1176548,10.212207,-0.230046,-1.917437,0.033502,0.098398,-0.058683,-0.571114,-0.099999,0.210258,40.799454,-87.873656,-34.083573
09280,1176648,10.896884,-0.207534,-1.633998,0.157649,0.031261,-0.095491,-0.570092,-0.101438,0.208683,41.698735,-87.823866,-34.893766
09281,1176748,11.075190,-0.017894,-1.463621,0.220724,-0.048513,-0.116197,-0.572565,-0.106806,0.206904,43.626945,-87.798919,-36.697476
09282,1176848,10.956296,0.093688,-1.142024,0.231174,-0.125353,-0.104317,-0.572035,-0.104749,0.205506,46.212325,-87.807272,-39.152849
09283,1176948,10.862347,0.198858,-0.704925,0.208231,-0.169808,-0.067479,-0.572125,-0.108453,0.209826,48.937884,-87.844031,-41.761615
09284,1177048,10.703723,0.353136,-0.241291,0.169751,-0.174376,-0.020251,-0.573610,-0.107907,0.209352,51.326302,-87.898787,-44.054996
09285,1177148,10.420665,0.487702,0.042992,0.124775,-0.144133,0.023470,-0.574117,-0.107924,0.209851,53.001695,-87.959638,-45.660604
09286,1177248,10.080614,0.547000,0.236205,0.071147,-0.101657,0.062902,-0.574095,-0.105882,0.208953,53.791754,-88.022846,-46.411036
09287,1177348,9.746780,0.516595,0.357767,0.016657,-0.046885,0.094398,-0.575602,-0.107876,0.209351,53.524801,-88.081869,-46.135074
09288,1177448,9.432644,0.487068,0.433961,-0.027522,0.007749,0.116342,-0.576107,-0.106397,0.209927,52.215364,-88.131887,-44.841411
09289,1177548,9.230441,0.390950,0.335735,-0.061311,0.054330,0.121449,-0.580054,-0.106238,0.207926,50.111466,-88.166153,-42.772285
09290,1177648,8.983934,0.252094,0.150521,-0.049913,0.063762,0.125858,-0.582528,-0.107147,0.206875,47.756567,-88.196149,-40.445537
09291,1177748,8.972299,0.144112,0.010621,-0.033176,0.044888,0.123270,-0.582023,-0.108625,0.206299,45.618965,-88.229568,-38.326637
09292,1177848,8.990828,0.083397,-0.070176,-0.007024,0.014579,0.120221,-0.583036,-0.107163,0.207375,43.855459,-88.271826,-36.567051
09293,1177948,9.047346,0.112930,-0.076247,0.015082,-0.023270,0.115360,-0.584004,-0.107075,0.205875,42.585992,-88.326543,-35.289092
09294,1178048,8.981450,0.150558,-0.075107,0.040632,-0.051716,0.104737,-0.586009,-0.109060,0.206273,41.790637,-88.388555,-34.470832
09295,1178148,8.972598,0.310597,0.002811,0.082378,-0.073713,0.090981,-0.589023,-0.107590,0.207847,41.482100,-88.454522,-34.115683
09296,1178248,8.983338,0.447338,0.089102,0.117478,-0.069646,0.068352,-0.588535,-0.108120,0.208322,41.481174,-88.510126,-34.048169
09297,1178348,8.977857,0.438068,0.114107,0.149367,-0.058413,0.048185,-0.591026,-0.108081,0.208321,41.670488,-88.553249,-34.152703
09298,1178448,8.992569,0.453106,0.124133,0.169367,-0.052020,0.034783,-0.589552,-0.109149,0.209270,42.013600,-88.588507,-34.399640
09299,1178548,9.029458,0.456490,0.187711,0.189730,-0.046276,0.026788,-0.592520,-0.107559,0.208346,42.432218,-88.618205,-34.710455
09300,1178648,8.984521,0.554298,0.228119,0.204767,-0.047327,0.020007,-0.593554,-0.108138,0.210319,43.013489,-88.645641,-35.175377
09301,1178748,9.046745,0.630563,0.258622,0.209733,-0.049217,0.017263,-0.595550,-0.110099,0.210217,43.700688,-88.672657,-35.743441
09302,1178848,9.025623,0.719209,0.250843,0.209846,-0.050712,0.014041,-0.596076,-0.110163,0.211716,44.498537,-88.698826,-36.422155
09303,1178948,9.032200,0.800050,0.250552,0.211345,-0.057599,0.009602,-0.594567,-0.112132,0.210616,45.534052,-88.725729,-37.337778
09304,1179048,8.964159,0.801265,0.307765,0.218582,-0.064586,0.005320,-0.598072,-0.112124,0.211614,46.826724,-88.753206,-38.506510
09305,1179148,8.942620,0.766097,0.368044,0.236933,-0.075889,-0.003079,-0.595068,-0.108660,0.211293,48.562456,-88.780791,-40.107921
09306,1179248,8.953750,0.694676,0.451222,0.251455,-0.088675,-0.008308,-0.598117,-0.111248,0.214164,50.745741,-88.809639,-42.148684
09307,1179348,9.039314,0.578123,0.565503,0.258756,-0.090475,-0.005879,-0.595130,-0.112292,0.214114,53.034200,-88.838519,-44.290467
09308,1179448,9.066569,0.567964,0.572734,0.254656,-0.080202,0.002416,-0.600115,-0.109248,0.214765,55.048377,-88.866114,-46.160268
09309,1179548,9.059919,0.621576,0.515428,0.238434,-0.074096,0.015337,-0.594209,-0.113497,0.218062,56.786155,-88.896635,-47.762928
09310,1179648,8.986504,0.706136,0.493183,0.213006,-0.072490,0.025414,-0.597191,-0.109464,0.218265,58.399138,-88.930605,-49.255362
09311,1179748,8.991504,0.761762,0.495085,0.184582,-0.074828,0.040393,-0.596707,-0.111987,0.218637,59.922028,-88.971839,-50.673999
09312,1179848,9.031755,0.834889,0.554880,0.154054,-0.085599,0.056886,-0.598227,-0.110541,0.220213,61.602477,-89.023587,-52.267740
09313,1179948,9.170180,0.955502,0.654669,0.123933,-0.103523,0.073173,-0.597759,-0.112116,0.221636,63.761018,-89.087377,-54.356925
09314,1180048,9.385914,1.046552,0.767873,0.091401,-0.114672,0.083816,-0.597318,-0.112767,0.224610,66.445469,-89.157875,-56.990743
09315,1180148,9.629340,1.101238,0.915674,0.058077,-0.108908,0.087621,-0.597751,-0.112590,0.221111,69.301597,-89.227112,-59.815366
09316,1180248,9.817444,1.151695,0.963607,0.021471,-0.090205,0.091566,-0.598315,-0.113249,0.224584,71.800585,-89.292965,-62.303815
09317,1180348,9.915887,1.136824,0.967547,-0.017546,-0.067602,0.089727,-0.597793,-0.110219,0.223737,73.699230,-89.352675,-64.214264
09318,1180448,9.904951,1.082736,0.929232,-0.046430,-0.055004,0.090118,-0.595818,-0.109801,0.224762,75.278668,-89.409947,-65.822077
09319,1180548,9.826657,1.025725,0.847239,-0.069903,-0.037272,0.084571,-0.598788,-0.109705,0.223762,76.205498,-89.461233,-66.790738
09320,1180648,9.753760,0.848917,0.915516,-0.100585,-0.044590,0.085562,-0.596371,-0.109439,0.227786,77.779757,-89.513795,-68.424469
09321,1180748,9.790415,0.617552,1.039038,-0.117153,-0.030720,0.086913,-0.598798,-0.109729,0.224262,78.681359,-89.565159,-69.395024
09322,1180848,9.859269,0.339714,1.225197,-0.114976,0.008576,0.092774,-0.597294,-0.109729,0.223762,76.444928,-89.615045,-67.226216
09323,1180948,9.880101,0.081685,1.273761,-0.098117,0.033365,0.104575,-0.600336,-0.108331,0.226836,70.899300,-89.666308,-61.738483
09324,1181048,9.929213,-0.059181,1.401579,-0.072279,0.033289,0.117300,-0.602798,-0.108219,0.225336,62.807878,-89.719918,-53.690120
09325,1181148,10.050546,-0.128069,1.577045,-0.056314,0.045917,0.129998,-0.599862,-0.106418,0.228438,48.769552,-89.766427,-39.685652
09326,1181248,10.205224,-0.182110,1.662033,-0.038991,0.064329,0.148538,-0.598800,-0.105767,0.224965,25.689102,-89.788729,-16.629071
09327,1181348,10.268969,-0.060891,1.610092,-0.024126,0.085413,0.168700,-0.602272,-0.102699,0.224616,-0.967611,-89.761087,10.012341
09328,1181448,10.214372,0.134995,1.511827,-0.011345,0.099917,0.183488,-0.601819,-0.102329,0.227141,-20.083962,-89.685190,29.120740
09329,1181548,10.133063,0.365461,1.432085,-0.005005,0.095701,0.187728,-0.602284,-0.099259,0.225793,-31.509992,-89.589417,40.542446
09330,1181648,10.031688,0.515203,1.447784,-0.002707,0.092061,0.184312,-0.601781,-0.101734,0.225167,-38.419345,-89.486476,47.448767
09331,1181748,10.044515,0.590795,1.498699,0.014588,0.096045,0.180557,-0.603783,-0.096270,0.226446,-42.680540,-89.378378,51.716798
09332,1181848,10.056329,0.635338,1.678224,0.028406,0.134002,0.173288,-0.606760,-0.100161,0.225242,-44.237831,-89.255414,53.288714
09333,1181948,10.300749,0.568041,1.890769,0.047769,0.193176,0.168844,-0.610198,-0.098988,0.222792,-43.672555,-89.109658,52.748965
09334,1182048,10.833152,0.376221,2.047452,0.060756,0.286714,0.163206,-0.611247,-0.097124,0.225893,-41.169140,-88.926319,50.278200
09335,1182148,11.469361,0.131474,1.904953,0.084546,0.376367,0.160181,-0.611188,-0.095485,0.222970,-37.881481,-88.702504,47.036495
09336,1182248,12.055558,0.067665,1.284588,0.090671,0.439351,0.161261,-0.612621,-0.097286,0.219369,-34.800633,-88.445873,44.004870
09337,1182348,12.412082,0.177367,0.607127,0.059296,0.461852,0.159803,-0.615534,-0.096049,0.215420,-32.366585,-88.175666,41.601949
09338,1182448,12.749406,0.383196,-0.194764,0.023846,0.449283,0.158494,-0.618508,-0.092988,0.215072,-30.660388,-87.909645,39.906592
09339,1182548,12.949282,0.679891,-1.062344,-0.029254,0.387386,0.153452,-0.621489,-0.093913,0.214521,-29.733844,-87.674503,38.960695
09340,1182648,12.654229,1.053823,-1.735140,-0.096193,0.224176,0.142054,-0.622454,-0.092330,0.213097,-29.931717,-87.523527,39.101603
09341,1182748,12.060155,1.006655,-1.658872,-0.210498,0.035101,0.118478,-0.622921,-0.090257,0.211699,-31.140415,-87.472673,40.188680
09342,1182848,11.901951,0.547115,-1.073752,-0.312819,-0.085035,0.098394,-0.622932,-0.091278,0.212148,-32.976732,-87.485033,41.845276
09343,1182948,11.819754,0.174117,-0.617030,-0.377817,-0.117457,0.100773,-0.623432,-0.092267,0.212097,-35.135288,-87.509479,43.787102
09344,1183048,11.482734,-0.218558,-0.739922,-0.407295,-0.122257,0.107875,-0.623949,-0.092307,0.213097,-37.462558,-87.530399,45.880871
09345,1183148,10.961183,-0.536424,-1.101919,-0.378338,-0.158765,0.113396,-0.621952,-0.089847,0.213225,-40.178699,-87.561632,48.380462
09346,1183248,10.375411,-0.924571,-1.325717,-0.296325,-0.212443,0.108648,-0.619946,-0.087363,0.212852,-43.363383,-87.612077,51.396024
09347,1183348,9.746680,-1.258851,-1.572926,-0.174783,-0.263995,0.090304,-0.622436,-0.086826,0.212877,-46.953480,-87.683227,54.886978
09348,1183448,9.043618,-1.525600,-1.818535,-0.046631,-0.343546,0.056780,-0.623492,-0.084487,0.216502,-51.276331,-87.788716,59.184615
09349,1183548,8.441667,-1.839899,-1.844023,0.086338,-0.434938,0.017372,-0.622009,-0.085531,0.216952,-56.773884,-87.928408,64.733768
09350,1183648,8.054829,-2.158648,-1.677673,0.211924,-0.469647,-0.012472,-0.617109,-0.083835,0.221553,-63.224064,-88.070583,71.307761
09351,1183748,7.873470,-2.428963,-1.356373,0.302226,-0.406014,-0.015809,-0.620589,-0.085748,0.220951,-69.444816,-88.173611,77.703646
09352,1183848,7.870764,-2.261736,-1.369363,0.355617,-0.314711,-0.012190,-0.616139,-0.083424,0.223078,-74.656468,-88.237068,83.120382
09353,1183948,8.172158,-1.878224,-1.233441,0.365528,-0.237673,-0.004263,-0.614219,-0.082652,0.227128,-78.789695,-88.271887,87.463839
09354,1184048,8.662454,-1.364031,-1.031054,0.343610,-0.168007,0.002232,-0.617162,-0.082484,0.224628,-81.773604,-88.287997,90.644911
09355,1184148,9.152512,-0.869206,-0.895125,0.285044,-0.119371,0.016432,-0.614226,-0.086638,0.226925,-83.935870,-88.288257,92.970428
09356,1184248,9.577959,-0.402596,-0.924517,0.202018,-0.092736,0.031135,-0.618719,-0.086591,0.227423,-85.655579,-88.276387,94.805611
09357,1184348,9.913175,-0.057903,-1.076912,0.131108,-0.074565,0.042610,-0.616733,-0.085152,0.228000,-87.058093,-88.255802,96.282808
09358,1184448,10.152327,0.322694,-1.368439,0.073177,-0.079024,0.041465,-0.614762,-0.086726,0.228924,-88.541666,-88.234854,97.807868
09359,1184548,10.245254,0.564463,-1.480003,0.028657,-0.087354,0.020274,-0.614764,-0.087723,0.228873,-90.168696,-88.224848,99.450889
09360,1184648,10.259470,0.638604,-1.575362,-0.019155,-0.112607,-0.015066,-0.614710,-0.089073,0.225798,-92.293075,-88.233125,101.564030
09361,1184748,10.261862,0.566413,-1.409612,-0.072240,-0.149713,-0.054621,-0.614234,-0.091122,0.226696,-95.220585,-88.259749,104.450176
09362,1184848,10.140460,0.400492,-1.139929,-0.118869,-0.186768,-0.091495,-0.615769,-0.092689,0.228619,-99.067071,-88.299448,108.228891
09363,1184948,9.963775,0.163543,-0.895264,-0.139814,-0.227074,-0.119137,-0.612762,-0.093187,0.227595,-103.989875,-88.341277,113.072276
09364,1185048,9.711284,-0.112284,-0.631350,-0.145731,-0.252205,-0.141972,-0.612286,-0.095236,0.228493,-109.761276,-88.378046,118.761113
09365,1185148,9.425742,-0.375652,-0.414380,-0.140119,-0.264288,-0.153696,-0.611300,-0.095774,0.228967,-116.060655,-88.400974,124.981283
09366,1185248,9.091623,-0.576670,-0.246351,-0.132302,-0.262145,-0.161200,-0.605799,-0.094318,0.228046,-122.504994,-88.408694,131.350933
09367,1185348,9.019342,-0.737206,-0.172184,-0.106153,-0.255830,-0.153811,-0.607836,-0.097870,0.229867,-128.720855,-88.395457,137.507052
09368,1185448,9.010032,-0.755724,-0.142896,-0.080027,-0.222150,-0.139522,-0.606322,-0.097347,0.228893,-134.067047,-88.371613,142.808230
09369,1185548,8.957899,-0.642963,-0.170932,-0.049579,-0.196250,-0.122141,-0.603899,-0.099051,0.232316,-138.605238,-88.338836,147.318636
09370,1185648,8.969068,-0.531377,-0.202112,-0.035228,-0.200422,-0.111096,-0.603403,-0.100055,0.232265,-142.813542,-88.290419,151.507360
09371,1185748,9.068077,-0.517589,-0.068248,-0.047141,-0.191477,-0.102735,-0.600867,-0.100970,0.229716,-146.556180,-88.234995,155.223515
09372,1185848,9.226540,-0.525868,0.048910,-0.059850,-0.178530,-0.088731,-0.599412,-0.102087,0.231665,-149.730624,-88.174948,158.364057
09373,1185948,9.337330,-0.537658,0.070763,-0.063594,-0.165857,-0.073930,-0.598406,-0.101580,0.231191,-152.367929,-88.112248,160.965167
09374,1186048,9.392616,-0.604028,-0.004140,-0.061409,-0.145116,-0.059902,-0.596426,-0.104127,0.231564,-154.468020,-88.053157,163.030138
09375,1186148,9.377343,-0.727912,-0.096892,-0.055204,-0.124338,-0.045418,-0.595467,-0.103741,0.233589,-156.085367,-87.999203,164.615744
09376,1186248,9.296930,-0.756571,-0.138105,-0.047745,-0.105112,-0.032971,-0.591429,-0.105155,0.230516,-157.311522,-87.951209,165.814279
09377,1186348,9.325835,-0.808113,-0.143222,-0.042900,-0.099526,-0.028138,-0.590450,-0.104720,0.231541,-158.376342,-87.904298,166.854229
09378,1186448,9.293145,-0.826578,-0.103896,-0.040299,-0.105168,-0.024347,-0.590462,-0.106239,0.231964,-159.369304,-87.852922,167.823837
09379,1186548,9.335836,-0.748859,0.058293,-0.040606,-0.112699,-0.026232,-0.589515,-0.107870,0.234388,-160.380459,-87.797247,168.811547
09380,1186648,9.462363,-0.701239,0.116123,-0.024629,-0.108885,-0.022317,-0.589995,-0.108312,0.233362,-161.261293,-87.742290,169.678069
09381,1186748,9.353247,-0.572788,0.128627,-0.013699,-0.107995,-0.019705,-0.587525,-0.109396,0.234312,-162.055022,-87.686861,170.463742
09382,1186848,9.209962,-0.489689,0.098020,-0.000722,-0.116848,-0.017720,-0.588032,-0.108914,0.234837,-162.814225,-87.625835,171.222356
09383,1186948,9.079949,-0.424937,0.145465,0.001957,-0.121412,-0.018280,-0.585062,-0.109508,0.235812,-163.558351,-87.561999,171.967466
09384,1187048,9.120530,-0.414394,0.220043,0.010266,-0.104498,-0.021352,-0.583589,-0.111074,0.236736,-164.238158,-87.507582,172.653011
09385,1187148,9.273611,-0.424289,0.273295,0.006648,-0.068134,-0.025406,-0.581106,-0.110142,0.237287,-164.818468,-87.473546,173.236928
09386,1187248,9.390191,-0.417434,0.241323,-0.013568,-0.030592,-0.029826,-0.583093,-0.112079,0.236686,-165.327632,-87.460707,173.738062
09387,1187348,9.505535,-0.332140,0.295509,-0.036046,-0.005241,-0.038647,-0.583592,-0.112569,0.236660,-165.874863,-87.462995,174.264421
09388,1187448,9.623731,-0.208205,0.321176,-0.052949,0.022765,-0.052557,-0.578628,-0.111700,0.237712,-166.523170,-87.482526,174.882260
09389,1187548,9.767675,-0.100120,0.346600,-0.063319,0.062279,-0.069081,-0.581148,-0.112729,0.239160,-167.284531,-87.525921,175.607295
09390,1187648,9.855470,-0.001695,0.249507,-0.077343,0.106278,-0.093565,-0.581591,-0.113075,0.236135,-168.283101,-87.596437,176.561674
09391,1187748,9.838931,0.007122,0.124030,-0.077847,0.128501,-0.116275,-0.580117,-0.113645,0.237110,-169.598135,-87.681117,177.832436
09392,1187848,9.827211,0.048997,0.050369,-0.079876,0.114936,-0.137365,-0.578605,-0.114617,0.236060,-171.347603,-87.758707,179.536730
09393,1187948,9.830385,-0.080081,-0.048108,-0.070233,0.102322,-0.161244,-0.577141,-0.116208,0.237484,-173.594324,-87.828518,-178.255910
09394,1188048,9.816184,-0.297632,-0.076256,-0.052787,0.091429,-0.173917,-0.577648,-0.115726,0.238009,-176.183374,-87.889117,-175.696065
09395,1188148,9.752979,-0.511144,-0.040201,-0.037991,0.076872,-0.183332,-0.574724,-0.115942,0.241508,-179.064228,-87.936975,-172.835804
09396,1188248,9.658967,-0.722704,0.027693,-0.023651,0.069922,-0.182158,-0.574136,-0.117203,0.236434,177.957981,-87.975472,-169.870367
09397,1188348,9.562452,-0.917879,0.148459,0.001420,0.092904,-0.172460,-0.573173,-0.120281,0.237782,175.014501,-88.021945,-166.924920
09398,1188448,9.539439,-1.069378,0.224504,0.037264,0.153820,-0.159244,-0.573203,-0.121350,0.239230,172.037376,-88.098591,-163.925317
09399,1188548,9.747063,-1.141482,0.276510,0.058541,0.248332,-0.144201,-0.574194,-0.118843,0.239357,168.765311,-88.224449,-160.618545
09400,1188648,10.195161,-1.100327,0.447768,0.063777,0.352061,-0.131482,-0.572172,-0.122764,0.237155,164.709807,-88.402857,-156.525213
09401,1188748,10.761442,-0.891683,0.652077,0.055789,0.455411,-0.116041,-0.576101,-0.122556,0.234155,159.144074,-88.629737,-150.926089
09402,1188848,11.205607,-0.444393,0.844727,0.036437,0.534410,-0.102641,-0.576118,-0.122106,0.235180,150.698224,-88.881923,-142.457811
09403,1188948,11.530933,0.192946,0.875892,0.005790,0.577329,-0.100969,-0.578062,-0.125916,0.231977,136.779265,-89.115137,-128.533886
09404,1189048,11.834005,0.805140,0.658576,-0.035546,0.593333,-0.104554,-0.579019,-0.124807,0.230029,114.585957,-89.266493,-106.359278
09405,1189148,11.914757,1.183859,0.369260,-0.069217,0.578559,-0.116814,-0.582481,-0.126174,0.228452,87.954656,-89.264523,-79.766059
09406,1189248,11.913340,1.168787,0.096130,-0.088404,0.556586,-0.136018,-0.580933,-0.127548,0.225377,67.007855,-89.116013,-58.868473
09407,1189348,12.330464,0.847181,-0.152351,-0.087953,0.574631,-0.153754,-0.585854,-0.129791,0.221750,53.213992,-88.873238,-45.123566
09408,1189448,12.725866,0.396736,-0.516641,-0.069421,0.596402,-0.171963,-0.585326,-0.128731,0.220302,44.567712,-88.573093,-36.515601
09409,1189548,12.514195,-0.118681,-1.059821,-0.065550,0.533008,-0.167788,-0.590337,-0.129720,0.221749,39.702077,-88.281615,-31.686351
09410,1189648,11.719457,-0.602662,-1.595296,-0.079091,0.389683,-0.147244,-0.593791,-0.126604,0.220401,37.402967,-88.054207,-29.432002
09411,1189748,10.995635,-1.044676,-1.800212,-0.065459,0.209185,-0.109427,-0.592304,-0.126153,0.220926,36.763238,-87.920645,-28.829945
09412,1189848,10.443564,-1.071183,-1.604044,-0.036067,0.070951,-0.070734,-0.593766,-0.123068,0.219579,36.990146,-87.863679,-29.078166
09413,1189948,9.960295,-0.740163,-1.447233,-0.026605,-0.022607,-0.041291,-0.598770,-0.125528,0.220450,37.718147,-87.859491,-29.822375
09414,1190048,9.633460,-0.270520,-1.124344,-0.034637,-0.059485,-0.027793,-0.596795,-0.125110,0.221476,38.629584,-87.876303,-30.754728
09415,1190148,9.281386,0.239912,-0.759143,-0.072346,-0.055815,-0.016380,-0.601798,-0.121615,0.223151,39.360270,-87.895098,-31.527818
09416,1190248,8.822811,0.838954,-0.389861,-0.148119,-0.060394,0.002580,-0.601293,-0.123094,0.222575,39.878416,-87.922528,-32.131711
09417,1190348,8.417321,1.436471,-0.191435,-0.248786,-0.056144,0.029189,-0.602756,-0.125963,0.220423,39.983876,-87.957753,-32.380432
09418,1190448,8.222967,1.952642,-0.091992,-0.362620,-0.026108,0.051840,-0.603309,-0.125602,0.223447,39.431723,-87.988060,-32.036448
09419,1190548,8.256927,2.220866,-0.373125,-0.459137,0.042916,0.058913,-0.603321,-0.127120,0.223871,38.012383,-87.989830,-30.880194
09420,1190648,8.254791,2.127024,-0.731657,-0.534789,0.128122,0.051420,-0.603231,-0.128872,0.218771,35.829788,-87.948706,-29.003677
09421,1190748,8.254473,1.748857,-1.114147,-0.593171,0.175104,0.045651,-0.605231,-0.132826,0.218568,33.365211,-87.880879,-26.878472
09422,1190848,8.355044,1.193599,-1.445077,-0.623704,0.166509,0.034980,-0.607132,-0.133551,0.213518,31.232633,-87.810905,-25.102954
09423,1190948,8.754177,0.619444,-1.457444,-0.610558,0.148222,0.029407,-0.603679,-0.137166,0.214841,29.432026,-87.746123,-23.652054
09424,1191048,9.392663,0.118970,-1.393389,-0.542396,0.139973,0.022114,-0.607108,-0.140928,0.211138,27.907777,-87.681882,-22.438595
09425,1191148,9.951285,-0.284423,-1.316229,-0.430849,0.123726,0.009856,-0.605031,-0.140244,0.206666,26.772704,-87.621587,-21.550571
09426,1191248,10.444886,-0.519320,-1.324786,-0.314108,0.088682,-0.005352,-0.603071,-0.143337,0.208013,26.145811,-87.574841,-21.104162
09427,1191348,10.773629,-0.588053,-1.378692,-0.218819,0.032995,-0.020017,-0.604073,-0.146311,0.207860,26.093812,-87.552939,-21.178472
09428,1191448,11.014472,-0.551256,-1.303228,-0.159865,-0.034012,-0.023596,-0.603050,-0.146753,0.206336,26.515935,-87.564542,-21.693481
09429,1191548,10.936623,-0.394923,-1.120218,-0.124478,-0.094951,-0.014526,-0.605490,-0.149558,0.203184,27.231605,-87.609425,-22.481977
09430,1191648,10.678222,-0.194227,-0.989389,-0.100905,-0.148516,0.000131,-0.606063,-0.150241,0.207157,28.162796,-87.684910,-23.472576
09431,1191748,10.367868,-0.036506,-0.800305,-0.086486,-0.187448,0.018880,-0.605496,-0.148088,0.203760,29.205676,-87.784413,-24.566617
09432,1191848,9.974860,0.144562,-0.554788,-0.086835,-0.211122,0.039720,-0.603538,-0.151679,0.205082,30.254483,-87.900813,-25.666714
09433,1191948,9.631103,0.338330,-0.239098,-0.104277,-0.217313,0.063985,-0.604587,-0.149815,0.208182,31.128194,-88.026647,-26.601512
09434,1192048,9.419614,0.460929,0.053463,-0.133897,-0.195200,0.082919,-0.607567,-0.150242,0.207656,31.615031,-88.146904,-27.166155
09435,1192148,9.262139,0.497630,0.233593,-0.160664,-0.149182,0.095945,-0.604113,-0.152860,0.209029,31.492866,-88.248535,-27.136822
09436,1192248,9.163402,0.509023,0.329384,-0.176279,-0.099294,0.100170,-0.608578,-0.148281,0.208757,30.771528,-88.326939,-26.517012
09437,1192348,9.096858,0.459701,0.272731,-0.173643,-0.049113,0.090693,-0.608528,-0.151624,0.205580,29.643854,-88.377454,-25.489231
09438,1192448,9.059500,0.399616,0.200902,-0.158745,-0.010101,0.074577,-0.609062,-0.150716,0.207630,28.364528,-88.403310,-24.301227
09439,1192548,9.060526,0.303927,0.050489,-0.131027,0.014221,0.056839,-0.609544,-0.152155,0.206554,27.158558,-88.411367,-23.170741
09440,1192648,8.993953,0.184988,-0.103395,-0.091952,0.010050,0.038982,-0.614526,-0.152574,0.206527,26.334163,-88.416397,-22.399584
09441,1192748,8.907248,0.129306,-0.175958,-0.043389,-0.021769,0.022936,-0.609550,-0.155144,0.206402,26.123521,-88.433523,-22.214582
09442,1192848,8.847400,0.056292,-0.189975,0.001281,-0.050059,0.006282,-0.610565,-0.155675,0.207376,26.517461,-88.460956,-22.608779
09443,1192948,8.756415,0.089166,-0.188815,0.047598,-0.070696,-0.002862,-0.612536,-0.154100,0.206452,27.334482,-88.496445,-23.399652
09444,1193048,8.737351,0.200339,-0.107877,0.085270,-0.079741,-0.004621,-0.611606,-0.154284,0.209951,28.342565,-88.535708,-24.360049
09445,1193148,8.810405,0.372680,-0.005008,0.131647,-0.069682,-0.006726,-0.613579,-0.153707,0.208976,29.360338,-88.568893,-25.303556
09446,1193248,8.904846,0.522389,0.073341,0.171361,-0.049322,-0.006637,-0.612133,-0.154847,0.211424,30.205531,-88.591584,-26.051675
09447,1193348,9.061169,0.638348,0.113536,0.191898,-0.035531,-0.006515,-0.609649,-0.153416,0.212001,30.918530,-88.607252,-26.655808
09448,1193448,9.171049,0.699209,0.118414,0.204704,-0.023453,-0.004574,-0.611617,-0.155305,0.210400,31.464377,-88.617410,-27.085423
09449,1193548,9.235366,0.712087,0.111428,0.212093,-0.015206,-0.003653,-0.611626,-0.155329,0.210899,31.898966,-88.623732,-27.399537
09450,1193648,9.316057,0.685730,0.096310,0.223858,-0.011778,-0.001804,-0.612630,-0.154341,0.211450,32.262548,-88.628899,-27.635904
09451,1193748,9.388557,0.630650,0.110542,0.234026,-0.002333,-0.001364,-0.609157,-0.156912,0.211823,32.503620,-88.629599,-27.743919
09452,1193848,9.508375,0.567151,0.118825,0.244308,-0.001152,0.003041,-0.610723,-0.150628,0.216651,32.646595,-88.631077,-27.747932
09453,1193948,9.664122,0.569570,0.159778,0.244536,-0.008857,0.011216,-0.608708,-0.153576,0.215000,32.724484,-88.638798,-27.686728
09454,1194048,9.835396,0.596559,0.222881,0.238749,-0.012021,0.016581,-0.610166,-0.153955,0.212975,32.731018,-88.649706,-27.557485
09455,1194148,9.959479,0.679655,0.282048,0.227882,-0.013781,0.021054,-0.611214,-0.152091,0.216076,32.661230,-88.662843,-27.358148
09456,1194248,9.973866,0.775917,0.248723,0.223635,-0.008082,0.020499,-0.608265,-0.153230,0.218025,32.522143,-88.673046,-27.091955
09457,1194348,9.898174,0.819378,0.203129,0.220320,-0.005437,0.019140,-0.612241,-0.153143,0.217524,32.371465,-88.681536,-26.816094
09458,1194448,9.765059,0.757056,0.169955,0.212572,-0.008692,0.018626,-0.610729,-0.148659,0.217253,32.267980,-88.691428,-26.591903
09459,1194548,9.674173,0.580737,0.152281,0.203810,-0.018610,0.027697,-0.608282,-0.146826,0.219855,32.095602,-88.708884,-26.303842
09460,1194648,9.575070,0.353024,0.174570,0.197992,-0.033386,0.037919,-0.610806,-0.150346,0.221175,31.890610,-88.736600,-25.986499
09461,1194748,9.512939,0.178022,0.226235,0.196428,-0.050681,0.056942,-0.609306,-0.147380,0.221328,31.481308,-88.778435,-25.465697
09462,1194848,9.513250,0.114036,0.281017,0.191896,-0.057184,0.081765,-0.606367,-0.149043,0.223752,30.532930,-88.830654,-24.408305
09463,1194948,9.619944,0.159337,0.342172,0.184527,-0.054142,0.104219,-0.605851,-0.144543,0.223481,28.865840,-88.887219,-22.636300
09464,1195048,9.685563,0.267045,0.450902,0.171007,-0.044979,0.121989,-0.606885,-0.144623,0.225480,26.387905,-88.942547,-20.061089
09465,1195148,9.756334,0.433446,0.555770,0.151433,-0.025256,0.134716,-0.603408,-0.144703,0.225981,22.991335,-88.988086,-16.578364
09466,1195248,9.849232,0.628897,0.603130,0.138131,0.005776,0.139002,-0.606909,-0.142204,0.227106,18.802929,-89.013625,-12.311363
09467,1195348,9.788272,0.773850,0.713719,0.107270,0.029743,0.136845,-0.604403,-0.139230,0.226759,14.268420,-89.019901,-7.715939
09468,1195448,9.738821,0.763973,0.746088,0.090092,0.034871,0.128517,-0.607882,-0.139649,0.226233,9.940069,-89.016183,-3.336576
09469,1195548,9.730033,0.648849,0.916266,0.084450,0.059938,0.116389,-0.605839,-0.137568,0.223836,5.978646,-88.991849,0.672567
09470,1195648,9.633388,0.482161,0.888618,0.093655,0.080006,0.112422,-0.602908,-0.138756,0.226785,2.327592,-88.951302,4.376593
09471,1195748,9.496648,0.324906,0.859550,0.120074,0.078783,0.111979,-0.605853,-0.140083,0.224209,-1.009424,-88.907475,7.781706
09472,1195848,9.366963,0.193549,0.937836,0.156278,0.079237,0.113845,-0.602350,-0.136128,0.223914,-4.108944,-88.859837,10.970076
09473,1195948,9.274639,0.099395,0.977663,0.194574,0.085516,0.118552,-0.601883,-0.138201,0.225312,-7.034315,-88.805154,14.006265
09474,1196048,9.259516,0.090806,1.016666,0.222964,0.097165,0.123069,-0.601919,-0.137799,0.227336,-9.740927,-88.740514,16.839980
09475,1196148,9.371421,0.164278,1.099445,0.246943,0.118029,0.128954,-0.604335,-0.137069,0.223363,-12.191110,-88.660828,19.431019
09476,1196248,9.428412,0.278243,1.173104,0.265442,0.136261,0.130211,-0.600425,-0.137823,0.227337,-14.267864,-88.568550,21.659205
09477,1196348,9.564021,0.351288,1.260999,0.278539,0.162822,0.131388,-0.601380,-0.135220,0.225464,-15.940863,-88.459692,23.491093
09478,1196448,9.656654,0.501142,1.370782,0.277599,0.201015,0.129624,-0.599345,-0.137622,0.222839,-17.123585,-88.328994,24.832058
09479,1196548,9.779209,0.664758,1.469275,0.272177,0.238530,0.125907,-0.600360,-0.137655,0.223838,-17.850999,-88.177829,25.714467
09480,1196648,9.975829,0.761571,1.499532,0.269870,0.274654,0.116990,-0.599363,-0.137172,0.223864,-18.127642,-88.008327,26.144582
09481,1196748,10.314610,0.799863,1.463185,0.259336,0.316317,0.114334,-0.599779,-0.137944,0.219315,-18.118699,-87.816577,26.282899
09482,1196848,10.695232,0.798904,1.332214,0.249819,0.371285,0.111860,-0.597754,-0.140869,0.217164,-17.838384,-87.595320,26.144158
09483,1196948,11.089039,0.747313,1.102884,0.251123,0.432141,0.106816,-0.598724,-0.141279,0.215639,-17.305331,-87.341658,25.753126
09484,1197048,11.394460,0.679645,0.885461,0.247532,0.491709,0.101123,-0.597207,-0.144220,0.213987,-16.600722,-87.056127,25.188164
09485,1197148,11.735683,0.499606,0.518240,0.223472,0.519291,0.099385,-0.596682,-0.144654,0.212463,-15.927356,-86.755394,24.640516
09486,1197248,12.007167,0.271255,0.079375,0.168218,0.492011,0.104091,-0.593655,-0.149563,0.209710,-15.497377,-86.468711,24.304797
09487,1197348,11.950295,0.074029,-0.387689,0.090749,0.395898,0.117152,-0.597084,-0.153325,0.206007,-15.496480,-86.233027,24.354458
09488,1197448,11.831900,-0.126199,-0.791010,0.017662,0.261736,0.133286,-0.593082,-0.154336,0.204958,-15.962636,-86.068819,24.830274
09489,1197548,11.945719,-0.261783,-0.955904,-0.027705,0.147680,0.154509,-0.589538,-0.158707,0.201232,-16.843424,-85.963505,25.695754
09490,1197648,12.047295,-0.275522,-0.813554,-0.043148,0.054917,0.176675,-0.590005,-0.162091,0.199055,-18.082765,-85.903988,26.911919
09491,1197748,11.928674,-0.282174,-0.763385,-0.060552,-0.026460,0.189238,-0.589020,-0.168085,0.198750,-19.604724,-85.884217,28.401501
09492,1197848,11.654567,-0.258222,-0.660246,-0.093167,-0.121944,0.190015,-0.589990,-0.174450,0.196420,-21.411422,-85.912448,30.157815
09493,1197948,11.399027,-0.167660,-0.411739,-0.145868,-0.196884,0.184588,-0.587488,-0.178427,0.195219,-23.471635,-85.977306,32.137909
09494,1198048,11.117740,-0.072410,-0.105514,-0.195031,-0.227690,0.166011,-0.588438,-0.183747,0.191940,-25.594973,-86.057489,34.152865
09495,1198148,10.764245,0.072785,-0.042847,-0.223092,-0.222166,0.140891,-0.586911,-0.191622,0.189035,-27.607083,-86.136184,36.040018
09496,1198248,10.319526,0.080268,-0.152340,-0.221149,-0.213590,0.116237,-0.590374,-0.198944,0.186654,-29.474481,-86.212918,37.783068
09497,1198348,9.786212,0.071977,-0.327781,-0.178460,-0.224700,0.085547,-0.592295,-0.205671,0.181799,-31.208851,-86.300336,39.417144
09498,1198448,9.233719,-0.071257,-0.452002,-0.105052,-0.252142,0.051516,-0.588809,-0.211681,0.180995,-32.856196,-86.408241,41.005981
09499,1198548,8.749760,-0.268257,-0.570139,-0.022346,-0.292830,0.021883,-0.592316,-0.222586,0.180435,-34.541614,-86.541983,42.680236
09500,1198648,8.298202,-0.469912,-0.653145,0.053042,-0.331459,-0.003520,-0.594753,-0.228855,0.176606,-36.340562,-86.699011,44.511246
09501,1198748,7.998906,-0.682466,-0.679871,0.122206,-0.364100,-0.021739,-0.596779,-0.237342,0.177173,-38.340361,-86.873585,46.582832
09502,1198848,7.830389,-0.893539,-0.723846,0.184831,-0.362558,-0.027546,-0.599758,-0.247685,0.175139,-40.480738,-87.045282,48.830816
09503,1198948,7.764709,-1.025135,-0.907234,0.230100,-0.341792,-0.033546,-0.604704,-0.253962,0.172308,-42.643485,-87.205759,51.126870
09504,1199048,7.858010,-1.197854,-1.078275,0.258578,-0.307072,-0.034089,-0.613724,-0.262885,0.173847,-44.747808,-87.347664,53.380518
09505,1199148,8.036581,-1.386123,-1.237654,0.264912,-0.250181,-0.020751,-0.623649,-0.268087,0.171066,-46.669561,-87.457477,55.454864
09506,1199248,8.345320,-1.508876,-1.428863,0.245213,-0.178469,0.016043,-0.632122,-0.275900,0.170157,-48.386224,-87.520947,57.312542
09507,1199348,8.770000,-1.398451,-1.618632,0.217783,-0.123992,0.055570,-0.643998,-0.278483,0.165503,-49.988638,-87.544485,59.040122
09508,1199448,9.084659,-1.170281,-1.780833,0.174900,-0.115251,0.081973,-0.652015,-0.283933,0.167220,-51.773966,-87.550917,60.926211
09509,1199548,9.435294,-1.057462,-1.602277,0.148716,-0.116338,0.099959,-0.664430,-0.288099,0.164489,-53.736559,-87.546878,62.974743
09510,1199648,9.930631,-0.964560,-1.496816,0.122944,-0.108997,0.111658,-0.679372,-0.287364,0.164509,-55.711876,-87.531929,65.021273
09511,1199748,10.348248,-0.815384,-1.413169,0.087732,-0.110370,0.111147,-0.689260,-0.287013,0.160507,-57.692488,-87.514633,67.052953
09512,1199848,10.747076,-0.681331,-1.273353,0.044006,-0.119691,0.109967,-0.698750,-0.285939,0.162055,-59.765694,-87.497592,69.152278
09513,1199948,10.925326,-0.496597,-1.193370,-0.020328,-0.135049,0.108285,-0.711187,-0.281731,0.161755,-62.010866,-87.482247,71.386869
09514,1200048,11.029839,-0.359734,-1.175753,-0.082228,-0.165472,0.113159,-0.721707,-0.278246,0.165428,-64.643428,-87.468081,73.973748
09515,1200148,11.024406,-0.189138,-1.152616,-0.127513,-0.196787,0.112505,-0.733112,-0.280411,0.162298,-67.636670,-87.455942,76.895706
09516,1200248,10.869734,-0.042258,-1.182784,-0.156725,-0.228217,0.103202,-0.737562,-0.272320,0.161704,-70.952088,-87.448058,80.123412
09517,1200348,10.541858,-0.022571,-0.989694,-0.166836,-0.276280,0.096551,-0.746097,-0.267894,0.165928,-74.812800,-87.442959,83.891155
09518,1200448,10.209567,-0.188209,-0.630714,-0.153445,-0.306986,0.084183,-0.753980,-0.260600,0.162283,-78.988023,-87.436998,87.981411
09519,1200548,9.949633,-0.301069,-0.253438,-0.118181,-0.310206,0.069147,-0.758452,-0.260007,0.161807,-83.120443,-87.426615,92.049068
09520,1200648,9.695945,-0.638072,-0.078249,-0.069664,-0.293198,0.062905,-0.766947,-0.253990,0.164109,-86.952984,-87.406315,95.844430
09521,1200748,9.488501,-0.916495,-0.078442,-0.036067,-0.265052,0.068028,-0.771951,-0.250994,0.165759,-90.338830,-87.371966,99.212007
09522,1200848,9.184832,-1.036893,-0.279519,-0.005293,-0.232174,0.081638,-0.777936,-0.244470,0.167087,-93.196565,-87.322099,102.068701
09523,1200948,8.964194,-1.071468,-0.471535,0.018358,-0.197316,0.100051,-0.780384,-0.236387,0.165993,-95.492440,-87.257330,104.376636
09524,1201048,8.878335,-1.040905,-0.575689,0.022986,-0.154871,0.127931,-0.786915,-0.235930,0.169015,-97.144299,-87.175643,106.042619
09525,1201148,8.810920,-0.881724,-0.617555,0.006118,-0.133386,0.153900,-0.791324,-0.230708,0.165770,-98.428561,-87.078836,107.331014
09526,1201248,8.973857,-0.652369,-0.585377,-0.016546,-0.146249,0.175520,-0.797303,-0.226153,0.166496,-99.740519,-86.967195,108.634269
09527,1201348,9.198844,-0.611784,-0.376995,-0.035595,-0.171840,0.183813,-0.800810,-0.221686,0.168223,-101.214676,-86.846598,110.089175
09528,1201448,9.524579,-0.713408,-0.316732,-0.048267,-0.171485,0.192300,-0.804756,-0.215572,0.167027,-102.565327,-86.719387,111.413291
09529,1201548,9.769804,-0.656630,-0.455222,-0.052912,-0.150276,0.200000,-0.806753,-0.213073,0.167654,-103.602463,-86.589113,112.420866
09530,1201648,9.995097,-0.529533,-0.629532,-0.062321,-0.132199,0.181457,-0.811671,-0.208366,0.164882,-104.450151,-86.470710,113.233374
09531,1201748,10.265558,-0.441100,-0.713813,-0.089476,-0.107547,0.145101,-0.816151,-0.201842,0.165710,-105.130376,-86.375409,113.862589
09532,1201848,10.330771,-0.370176,-0.907462,-0.141899,-0.095105,0.117552,-0.819112,-0.201722,0.164210,-105.766920,-86.296778,114.417987
09533,1201948,10.278725,-0.314360,-1.054704,-0.206011,-0.098582,0.096555,-0.819578,-0.199151,0.162838,-106.495401,-86.228733,115.028740
09534,1202048,10.209935,-0.308772,-0.994093,-0.266183,-0.095332,0.081322,-0.821519,-0.196009,0.160490,-107.246142,-86.169074,115.627282
09535,1202148,10.065726,-0.551291,-0.810319,-0.304089,-0.081691,0.084929,-0.828506,-0.198414,0.160861,-107.878968,-86.109329,116.085912
09536,1202248,9.919406,-0.814649,-0.781699,-0.343510,-0.028054,0.124164,-0.829412,-0.194694,0.156540,-107.994163,-86.037461,116.003099
09537,1202348,9.917006,-1.084648,-0.770106,-0.355691,0.012427,0.119504,-0.832344,-0.194004,0.153566,-107.813929,-85.975259,115.617154
09538,1202448,9.902422,-1.338307,-0.896276,-0.354439,0.063306,0.119582,-0.836723,-0.192671,0.148117,-107.251555,-85.921620,114.848833
09539,1202548,9.737586,-1.482557,-0.840499,-0.351023,0.084877,0.124198,-0.835718,-0.193161,0.147593,-106.530148,-85.868434,113.923017
09540,1202648,9.702511,-1.455017,-0.630482,-0.358751,0.083727,0.129053,-0.841082,-0.190294,0.141720,-105.832583,-85.811574,113.016635
09541,1202748,9.732332,-1.298170,-0.428117,-0.363986,0.084532,0.122595,-0.846050,-0.193156,0.140567,-105.166549,-85.757623,112.138821
09542,1202848,9.874506,-1.289502,-0.226528,-0.348961,0.106276,0.107621,-0.849468,-0.191437,0.137143,-104.378915,-85.714329,111.147672
09543,1202948,9.942284,-1.321343,-0.050020,-0.325178,0.173822,0.088173,-0.849356,-0.190650,0.131171,-103.130887,-85.689756,109.708474
09544,1203048,9.826128,-1.215755,-0.139140,-0.301317,0.259006,0.066952,-0.851309,-0.194484,0.128468,-101.284960,-85.684486,107.683381
09545,1203148,9.639771,-1.052633,-0.314492,-0.277052,0.300561,0.046831,-0.857230,-0.194245,0.125467,-99.145200,-85.689492,105.377576
09546,1203248,9.508322,-0.955557,-0.359537,-0.267098,0.292966,0.022102,-0.861640,-0.194977,0.121417,-97.078080,-85.701543,103.150370
09547,1203348,9.442036,-0.802095,-0.317215,-0.265884,0.266420,-0.000289,-0.865526,-0.196144,0.115841,-95.218349,-85.718987,101.131878
09548,1203448,9.434951,-0.818010,-0.266728,-0.265727,0.216572,-0.019702,-0.868004,-0.199544,0.114663,-93.736293,-85.740880,99.492258
09549,1203548,9.414004,-0.512477,-0.291544,-0.252832,0.179474,-0.065186,-0.868968,-0.202421,0.112511,-92.533359,-85.784767,98.139994
09550,1203648,9.446185,-0.979550,-0.266786,-0.223489,0.145381,-0.089613,-0.872378,-0.206135,0.107809,-91.559901,-85.840037,97.034774
09551,1203748,9.522273,-1.298847,-0.135293,-0.209330,0.139863,-0.094308,-0.877346,-0.208499,0.106680,-90.595025,-85.896562,95.946393
09552,1203848,9.619160,-1.449556,-0.078186,-0.213494,0.154887,-0.090740,-0.879337,-0.212927,0.105952,-89.482887,-85.949615,94.708089
09553,1203948,9.680373,-1.461795,-0.099598,-0.225807,0.173224,-0.082114,-0.883694,-0.215508,0.098800,-88.199277,-85.995661,93.290922
09554,1204048,9.686126,-1.309469,-0.163928,-0.231127,0.179190,-0.080846,-0.885708,-0.217019,0.099723,-86.839402,-86.038523,91.794349
09555,1204148,9.642552,-1.077885,-0.251693,-0.232669,0.163187,-0.087892,-0.888152,-0.221817,0.096469,-85.578842,-86.083629,90.396536
09556,1204248,9.677918,-0.791469,-0.335031,-0.209003,0.129900,-0.099541,-0.891614,-0.223683,0.094867,-84.545325,-86.135095,89.239963
09557,1204348,9.764759,-0.612435,-0.358540,-0.182451,0.117606,-0.115987,-0.891134,-0.228199,0.095139,-83.556328,-86.195270,88.143331
09558,1204448,9.839183,-0.508322,-0.526486,-0.149211,0.107780,-0.125580,-0.893621,-0.231623,0.094460,-82.589375,-86.260320,87.087950
09559,1204548,9.869147,-0.486507,-0.658788,-0.131092,0.088988,-0.135278,-0.897073,-0.232966,0.092384,-81.729837,-86.331229,86.150686
09560,1204648,9.800974,-0.494785,-0.624274,-0.115551,0.049213,-0.135643,-0.897572,-0.238415,0.091604,-81.183662,-86.404982,85.536409
09561,1204748,9.691633,-0.416537,-0.553673,-0.109749,0.001217,-0.129236,-0.900561,-0.243824,0.090824,-81.060564,-86.479122,85.349396
09562,1204848,9.629621,-0.352079,-0.457408,-0.090681,-0.051405,-0.130272,-0.898073,-0.245358,0.090749,-81.413195,-86.558467,85.649943
09563,1204948,9.523782,-0.334558,-0.428054,-0.066152,-0.093472,-0.139925,-0.901538,-0.248718,0.089071,-82.160522,-86.646553,86.359923
09564,1205048,9.385142,-0.367521,-0.414630,-0.041700,-0.112447,-0.154696,-0.902120,-0.253885,0.092815,-83.104111,-86.743799,87.280451
09565,1205148,9.252522,-0.429376,-0.340275,-0.024535,-0.110115,-0.166428,-0.903094,-0.257285,0.091137,-84.058108,-86.846684,88.221156
09566,1205248,9.130757,-0.525962,-0.355848,-0.015663,-0.088187,-0.170594,-0.899077,-0.260241,0.088987,-84.831769,-86.949922,88.986259
09567,1205348,9.201834,-0.658701,-0.369305,-0.016671,-0.082635,-0.158075,-0.901098,-0.265738,0.089706,-85.608819,-87.045178,89.754112
09568,1205448,9.449993,-0.785360,-0.364136,-0.030136,-0.076320,-0.135643,-0.901129,-0.267305,0.091130,-86.388955,-87.126803,90.517282
09569,1205548,9.721361,-0.783625,-0.304496,-0.037568,-0.077882,-0.099201,-0.902679,-0.267924,0.094102,-87.257255,-87.187063,91.364424
09570,1205648,9.836937,-0.703013,-0.272852,-0.043859,-0.082540,-0.064120,-0.902668,-0.271862,0.092900,-88.234946,-87.226658,92.317449